time,seconds_elapsed,accel_x,accel_y,accel_z,gyro_x,gyro_y,gyro_z,label
1783088026981753300,0.06475341796875,0.4930192256398498,-0.7192576923906803,-0.5708452465116978,0.2296378761529922,-0.5899801254272461,0.0288302600383758,jumping
1783088026991797200,0.07479736328125,0.6486544623792171,-0.4862631755083799,-0.418966001304984,0.2049387097358703,-0.6047884821891785,0.0390269868075847,jumping
1783088027001842200,0.08484228515625,0.8320871490392834,-0.2425064415931701,-0.2429723055392503,0.157276913523674,-0.5742417573928833,0.0761754214763641,jumping
1783088027011886300,0.09488623046875,0.769740582980588,0.0786029965937137,-0.0765156689256429,0.0888418555259704,-0.5141734480857849,0.1334533393383026,jumping
1783088027021930200,0.10493017578125,0.7528755190279335,0.2886675965264439,0.1106938328593969,0.0381467267870903,-0.4620146155357361,0.1950328201055526,jumping
1783088027031975200,0.11497509765625,0.8652429841879755,0.3476841413795948,0.1482844355851411,0.0467839241027832,-0.4188041090965271,0.2613750994205475,jumping
1783088027042019300,0.125019287109375,0.8567120333384722,0.2501639706090092,-0.0023632220000028,0.0953535884618759,-0.3692991435527801,0.314197838306427,jumping
1783088027052063200,0.135063232421875,0.6451986959021538,0.108492815683782,-0.0718494306802749,0.1450279355049133,-0.307474136352539,0.3384962379932403,jumping
1783088027062107400,0.145107421875,0.4147874735113233,-0.0347816827848553,-0.0632768326461315,0.1708179861307144,-0.3192349076271057,0.335228830575943,jumping
1783088027072152300,0.15515234375,0.5106348887640982,-0.1192217149689793,0.0779734665185213,0.1885655224323272,-0.3936991989612579,0.2959131002426147,jumping
1783088027082196200,0.1651962890625,0.8468867318294941,-0.2814396910995245,-0.0304512523651123,0.1611072719097137,-0.492730975151062,0.2296573668718338,jumping
1783088027092240400,0.175240478515625,0.9062703564293682,-0.5719128757432103,-0.5617430716454982,0.0945804342627525,-0.516045093536377,0.1712694317102432,jumping
1783088027102284300,0.1852841796875,0.5804473337240517,-0.7253650693550705,-1.1951795066267252,0.0507642515003681,-0.4947264492511749,0.1214480847120285,jumping
1783088027112329200,0.1953291015625,0.1542960970900952,-0.706630266007781,-1.2275380539178848,0.0522572696208953,-0.4530172049999237,0.0705135837197303,jumping
1783088027122373400,0.205373291015625,-0.1034147817671299,-0.8070581409186124,-1.0529518868625165,0.058394256979227,-0.4627670645713806,-0.014432462863624,jumping
1783088027132417300,0.215417236328125,-0.1424656663037836,-0.9935033803328872,-0.7746013939499855,0.1023862138390541,-0.5178508162498474,-0.097877025604248,jumping
1783088027142461200,0.225461181640625,-0.1523389716729521,-0.9233511089593172,-0.6131751527190208,0.2086958736181259,-0.600147545337677,-0.1810347586870193,jumping
1783088027152506400,0.23550634765625,-0.0861477128848433,-0.7142214517891406,-0.7083955221146345,0.37007737159729,-0.6749340295791626,-0.2610879838466644,jumping
1783088027162550300,0.24555029296875,-0.068950055976957,-0.7433852946922183,-0.7435691268265247,0.5275306701660156,-0.6801199913024902,-0.3098051846027374,jumping
1783088027172594400,0.255594482421875,0.291708425527066,-0.9101599112138152,-0.7326742233246565,0.6075044870376587,-0.6438794732093811,-0.2939450740814209,jumping
1783088027182638000,0.26563818359375,0.5531963387049734,-1.0280036158278585,-0.7243389411777258,0.5744141936302185,-0.6605255603790283,-0.2586651146411896,jumping
1783088027192683300,0.275683349609375,0.8139046458125114,-1.0647745727337896,-0.5952274080961942,0.4594033658504486,-0.6691389679908752,-0.2123933732509613,jumping
1783088027202727400,0.2857275390625,0.603501023183763,-1.0086600329324602,-0.5643383488357067,0.3153668344020843,-0.6531528234481812,-0.1606132686138153,jumping
1783088027212771000,0.29577099609375,0.132947896374017,-1.0325561645656824,-0.3837450503200292,0.2069003283977508,-0.5953202247619629,-0.1044385731220245,jumping
1783088027222815200,0.305815185546875,-0.1803092208772897,-1.0541802596136929,-0.1888549309045076,0.1727857738733291,-0.5296629071235657,-0.0666547119617462,jumping
1783088027232860400,0.3158603515625,-0.1165441663227975,-1.1098727746106682,-0.0785638336271047,0.195506066083908,-0.475312739610672,-0.0297080669552087,jumping
1783088027242904000,0.325904052734375,0.2804877972021699,-0.9028824675567448,0.0148094465970993,0.2530641853809356,-0.4191533327102661,0.0373703055083751,jumping
1783088027252948200,0.3359482421875,0.5315688826560974,-0.5677158624447882,0.0313175138056278,0.3066611289978027,-0.3580948710441589,0.1222814619541168,jumping
1783088027262993400,0.345993408203125,0.7894654933437705,-0.2636472831688821,0.3477344102621078,0.3064965605735779,-0.3421281576156616,0.2026074528694152,jumping
1783088027273037300,0.356037353515625,1.21962976501137,0.0624156857721507,0.9056459409207104,0.2353435903787613,-0.4063375890254974,0.3207813203334808,jumping
1783088027283081200,0.366081298828125,1.669863011239469,0.485773492295295,1.3316612762153148,0.1512710452079773,-0.5695573687553406,0.4856046140193939,jumping
1783088027293125000,0.376125,1.8222485985331236,0.9385656292259692,1.448193898230791,0.1501906067132949,-0.7526638507843018,0.6737303137779236,jumping
1783088027303170300,0.38617041015625,1.559437035536021,1.0792341829799117,1.101539684420824,0.2308428436517715,-0.9007055163383484,0.8533695340156555,jumping
1783088027313214200,0.396214111328125,1.125393438217044,0.8289135605044663,1.0067343255668877,0.3463480770587921,-1.0699162483215332,0.9879624843597412,jumping
1783088027323258000,0.406258056640625,0.770400435128808,0.6132058401182293,1.3548720559328793,0.4847600162029266,-1.2896907329559326,1.0683510303497314,jumping
1783088027333302300,0.41630224609375,0.3685089027434587,0.5321615878522395,1.90398419406414,0.5756384134292603,-1.5007550716400146,1.091023564338684,jumping
1783088027343347200,0.42634716796875,0.1270817808195948,0.5628486947998405,2.555837160223722,0.5317711234092712,-1.7043747901916504,1.0649983882904053,jumping
1783088027353391000,0.43639111328125,0.1102490117013454,0.6970802012436091,3.107292062088847,0.3819144964218139,-1.847448229789734,1.0251291990280151,jumping
1783088027363435300,0.446435302734375,-0.0604535919189453,0.7481259133480489,3.133267630344629,0.2442482262849807,-1.9169319868087769,0.985385000705719,jumping
1783088027373479400,0.4564794921875,-0.576628213827312,0.5632569833397865,2.5842478466719387,0.1743094474077224,-1.837692379951477,0.9184191226959229,jumping
1783088027383524000,0.466524169921875,-1.381257081772387,0.1071305874198675,1.151932485574484,0.1384513229131698,-1.5222846269607544,0.8304003477096558,jumping
1783088027393568000,0.476568115234375,-1.8511279254063964,-0.1900098000280559,-0.5744774655342102,0.1150512546300888,-1.0809998512268066,0.7626774907112122,jumping
1783088027403612000,0.48661181640625,-1.8402213314667344,-0.2267116372205317,-1.8298726636707785,0.0767725780606269,-0.5545507669448853,0.6850101351737976,jumping
1783088027413656000,0.496656005859375,-2.0916589752733707,-0.4868520813122391,-3.2255566224634644,0.016591228544712,0.1714368909597396,0.5799137353897095,jumping
1783088027423701000,0.506700927734375,-2.651293968723714,-0.8481415541961789,-4.65876571753025,-0.0681561455130577,1.0155290365219116,0.4371832609176636,jumping
1783088027433745000,0.516744873046875,-2.6431039402663705,-1.255620092933625,-4.987732883480191,-0.1199076771736145,1.696865797042847,0.273976594209671,jumping
1783088027443789000,0.5267890625,-1.947683342798054,-1.7562049315221606,-4.1190877626985305,-0.1087386459112167,2.1235263347625732,0.1513806134462356,jumping
1783088027453833000,0.5368330078125,-1.4934244943156838,-1.9786833150871097,-3.3404788866728543,-0.0741240605711937,2.3605051040649414,0.0807612091302871,jumping
1783088027463878000,0.5468779296875,-1.430530231246352,-1.605021998016536,-2.7023645230084656,-0.0343968905508518,2.341118097305298,0.0404566600918769,jumping
1783088027473922000,0.556922119140625,-1.1234344131037592,-1.1739116776704788,-1.3815753539413214,0.0145457191392779,2.043008089065552,0.0446461960673332,jumping
1783088027483966000,0.566966064453125,-0.7367398653283714,-1.0772877250872552,-0.2599789699196815,0.0617547780275344,1.5111130475997925,0.1269762217998504,jumping
1783088027494011000,0.577010986328125,-0.2219327323809266,-1.0221545975387096,0.4510153365164995,0.1469164788722992,0.8666393756866455,0.2633731365203857,jumping
1783088027504055000,0.587054931640625,0.3470044885523617,-1.1266073440514504,0.7350263394087553,0.2593298256397247,0.2982244193553924,0.3971677124500274,jumping
1783088027514099000,0.597098876953125,0.3701018710233271,-1.3092854860171674,0.8128905003339052,0.3263511061668396,-0.1654653400182724,0.48415407538414,jumping
1783088027524143000,0.60714306640625,0.1817262480683624,-1.3521689344540238,0.8178221115171909,0.3457751274108886,-0.4723275601863861,0.5363509058952332,jumping
1783088027534188000,0.61718798828125,0.2078229584857821,-1.4164290790490806,0.5090355638086795,0.3295135498046875,-0.5493521094322205,0.5919249653816223,jumping
1783088027544232000,0.62723193359375,0.0656220805980265,-1.5502240937717258,0.7717015808552503,0.31673064827919,-0.7063174843788147,0.6783943176269531,jumping
1783088027554276000,0.637276123046875,0.2206261798270046,-1.288816113962233,1.2796493494272232,0.434815913438797,-0.7848302125930786,0.7742821574211121,jumping
1783088027564320000,0.647320068359375,0.1510240896821022,-1.4576260357037183,1.3605150302559137,0.5473432540893555,-0.8022158741950989,0.8284569978713989,jumping
1783088027574365000,0.657364990234375,0.1059235497176647,-1.5501976441562175,1.6003513758569954,0.6219819188117981,-0.7294571995735168,0.8778243660926819,jumping
1783088027584409000,0.6674091796875,0.2482959847800433,-1.242010962036997,1.9621102198183535,0.6329829096794128,-0.6249052286148071,0.9292697310447692,jumping
1783088027594453000,0.677452880859375,0.4437774942174554,-1.210158902963251,2.400301730597019,0.5901756286621094,-0.4967233836650848,0.9762418866157532,jumping
1783088027604497000,0.687496826171875,0.5693775120466947,-1.284837127328664,2.462038932585716,0.4959872961044311,-0.2756221890449524,1.0201979875564575,jumping
1783088027614542000,0.6975419921875,0.7961074155762791,-1.0993054956279695,2.649843477654457,0.3676540553569793,-0.0815970674157142,1.0898847579956057,jumping
1783088027624586000,0.7075859375,1.3298660633616148,-0.796819947759807,2.8925188460737465,0.2966427505016327,0.1356449723243713,1.2097898721694946,jumping
1783088027634630000,0.7176298828125,1.639951857100427,-0.5573731859982013,3.010308190152049,0.2770859897136688,0.323683351278305,1.3805806636810305,jumping
1783088027644674000,0.727674072265625,1.981783911450952,-0.2612016435824335,3.706303664898872,0.0769643411040306,0.478124588727951,1.6820688247680664,jumping
1783088027654719000,0.737718994140625,2.066628286652267,-0.5784186043754219,5.4971513091266155,-0.118941344320774,0.331828773021698,1.877278208732605,jumping
1783088027664763000,0.747762939453125,0.1767965365812182,-2.085647606029361,5.962799566629529,-0.0270441751927137,0.24374820291996,1.7936272621154783,jumping
1783088027674807000,0.75780712890625,-1.398003049390018,-3.010869331166148,5.88707884747386,0.2179555594921112,0.1505959630012512,1.6065490245819092,jumping
1783088027684851000,0.767850830078125,-1.657157405053824,-3.839129834589362,6.563762888029217,0.4330630600452423,-0.1238888427615165,1.3753992319107056,jumping
1783088027694895900,0.777895751953125,0.4777066518262028,-3.748478672805428,7.986578599375486,0.4621450901031494,-0.7147815227508545,1.2142434120178225,jumping
1783088027704940000,0.78793994140625,1.8166981247991325,-2.9314713848024603,8.165791257187724,0.4647169113159179,-1.3089386224746704,1.167202115058899,jumping
1783088027714984000,0.79798388671875,0.8895932162642478,-2.326953293530643,5.953133912661671,0.5864370465278625,-1.6755943298339844,1.2888429164886477,jumping
1783088027725028900,0.80802880859375,-0.4179989098384976,-0.9631668403886258,3.710810328668355,0.852334201335907,-1.8447548151016235,1.606033444404602,jumping
1783088027735073000,0.818072998046875,-1.8922002327680587,0.1989667212046682,0.8920353487193584,1.171605944633484,-1.2634435892105105,1.9117417335510256,jumping
1783088027745117000,0.828116943359375,-1.0099760839670897,0.3454420615412295,-1.3960077839195728,1.1738941669464111,-0.779306173324585,1.8846851587295532,jumping
1783088027755161000,0.8381611328125,4.851946110418439,0.1720632244490087,-2.3967168578475713,0.7416731715202332,-0.1964296400547027,1.9188109636306765,jumping
1783088027765206000,0.8482060546875,7.639683562546968,1.3756836655542253,-5.227730557122826,0.3092797398567199,0.3405635058879852,1.9558649063110352,jumping
1783088027775250000,0.85825,4.035151296122372,1.652177132423222,-7.960231859719753,0.207604095339775,0.5158186554908752,1.7626787424087524,jumping
1783088027785294000,0.868294189453125,-0.8676224997356533,-0.8556836401388048,-7.983588185387849,0.3320445418357849,-0.0919466391205787,1.3046246767044067,jumping
1783088027795338000,0.878337890625,-4.061982019902765,-2.227804498644918,-7.794222966873646,0.6583264470100403,-1.0784324407577517,0.8706036806106567,jumping
1783088027805383000,0.8883828125,-3.571922374720871,-1.1398007337540388,-8.984638620099425,0.878615140914917,-2.134848356246948,0.7459871768951416,jumping
1783088027815427000,0.898427001953125,-1.5363561658084393,1.8935282665014264,-9.96942531775236,0.9686185717582704,-3.0551681518554688,0.9120933413505554,jumping
1783088027825471000,0.908470947265625,-1.8807067788511511,3.38203897755146,-11.6405453433156,1.0108898878097534,-3.6535756587982178,1.0146864652633667,jumping
1783088027835515100,0.91851513671875,-4.241791182303428,1.132009495355934,-16.219477061152457,1.0683283805847168,-3.631047010421753,0.8103165030479431,jumping
1783088027845560000,0.92856005859375,-4.684028169080615,-0.669511810838431,-20.823489444231985,1.0873388051986694,-3.0498173236846924,0.5388466119766235,jumping
1783088027855604000,0.93860400390625,-5.148382295119762,-0.6256647780664265,-23.445970283186433,1.1192936897277832,-2.2693817615509033,0.4488306939601898,jumping
1783088027865648000,0.948648193359375,-5.752265887880325,0.0505269489273428,-22.882287767910956,1.15876042842865,-1.5207624435424805,0.4756329953670501,jumping
1783088027875691800,0.95869189453125,-6.178196467500925,0.1628488213799893,-20.159678329253197,1.1211159229278564,-0.8487691879272461,0.4925268888473511,jumping
1783088027885737000,0.968737060546875,-5.890519343316555,0.9461202823892236,-17.009848855686187,0.983307957649231,-0.4934810996055603,0.6009178161621094,jumping
1783088027895781000,0.978781005859375,-4.645575104306638,1.806656038734317,-13.790035745310783,0.9038695693016052,-0.4398061633110046,0.7767393589019775,jumping
1783088027905825000,0.988824951171875,-4.15210886555165,2.0700810574546455,-11.059731660497189,0.9547449946403505,-0.5219516158103943,0.8791773319244385,jumping
1783088027915869000,0.998868896484375,-2.567540749759972,2.579864517021179,-8.39043587887585,1.09010910987854,-0.8174826502799988,1.056862711906433,jumping
1783088027925914000,1.0089140625,0.1245885026991367,3.853929052053392,-6.554767680668831,1.3040250539779663,-1.1494038105010986,1.3463566303253174,jumping
1783088027935958000,1.0189580078125,1.969102562923729,4.750094924706221,-6.16841332463324,1.6185041666030884,-1.1893314123153689,1.6200281381607056,jumping
1783088027946002000,1.029001953125,2.6107287341013548,5.04176374887526,-5.20877451224029,1.845504879951477,-0.9506661295890808,1.803270697593689,jumping
1783088027956045800,1.0390458984375,3.1729218876019116,5.192403223153948,-2.0371984862893817,1.8857444524765017,-0.6315173506736755,1.9067602157592771,jumping
1783088027966091000,1.049091064453125,4.1284459581524136,5.656193870091438,2.279324404132366,1.687946081161499,-0.3461228907108307,2.017643690109253,jumping
1783088027976135000,1.059135009765625,5.4348108805477615,6.688189478164911,6.170486039254069,1.324810028076172,-0.1295292526483535,2.1467151641845703,jumping
1783088027986178800,1.0691787109375,6.669911478674411,7.4260834819644685,8.92584273225963,0.8863971829414368,-0.0154817700386047,2.2676351070404053,jumping
1783088027996224000,1.07922412109375,7.77485541858077,7.0878797011137005,11.577574800139663,0.5222713351249695,-0.1472388207912445,2.3868250846862793,jumping
1783088028006268000,1.089267822265625,8.237491634786128,5.784538510453701,13.9361451749444,0.3135777711868286,-0.4030714035034179,2.41558575630188,jumping
1783088028016311800,1.099311767578125,7.948373079621791,3.966097633640468,15.055001904869078,0.1786040216684341,-0.6193737387657166,2.273970127105713,jumping
1783088028026356000,1.10935595703125,7.325815766051411,1.830016163794696,15.01344941277504,0.0577154085040092,-0.5793778300285339,1.9179444313049316,jumping
1783088028036401200,1.119401123046875,6.751310243466496,0.0136898679826408,13.660036908000707,-0.0886727049946785,-0.1580148786306381,1.4544159173965454,jumping
1783088028046444800,1.12944482421875,7.0807000187426805,-0.3762640469148754,11.986741291964051,-0.2527087926864624,0.5071005821228027,1.0310100317001345,jumping
1783088028056489000,1.139489013671875,6.834584739002585,0.0502209517180919,10.950730018508434,-0.399003654718399,1.2665692567825315,0.6343596577644348,jumping
1783088028066533000,1.149533203125,5.733120457905531,0.0439743124134838,10.547166753518582,-0.5510836839675903,2.056215286254883,0.206892728805542,jumping
1783088028076577800,1.159577880859375,4.1250130610942835,-0.0672493895389139,9.872198284709452,-0.6477866768836975,2.8371617794036865,-0.2213380932807922,jumping
1783088028086622000,1.1696220703125,2.0889681287541984,-0.5286968343511224,8.68613439695239,-0.7348347306251526,3.654399871826172,-0.5771907567977905,jumping
1783088028096666000,1.179666015625,0.1469882582947611,-1.7358365356236696,7.602426721820235,-0.827373206615448,4.341222763061523,-0.9084501266479492,jumping
1783088028106710000,1.1897099609375,-0.7913400550439953,-2.5317197870552537,6.699445031672716,-0.7204641103744507,4.777027130126953,-1.2002878189086914,jumping
1783088028116755000,1.1997548828125,-0.6393880368620157,-2.9540082107812164,5.97788373851478,-0.4548150897026062,4.792417049407959,-1.39448881149292,jumping
1783088028126798800,1.209798828125,0.1658766447685659,-3.6105122176170346,5.797820601353049,-0.1260151118040084,4.326082706451416,-1.514407753944397,jumping
1783088028136843000,1.219843017578125,0.8303169975616037,-4.142136045330763,6.435254581537842,0.2465555220842361,3.274190664291382,-1.472041130065918,jumping
1783088028146887200,1.22988720703125,1.1833498064927757,-4.561273896071315,6.765714031872153,0.5869490504264832,2.0355687141418457,-1.3577874898910522,jumping
1783088028156931800,1.239931884765625,1.0976273332826794,-5.255750782948732,7.161882510435581,0.8241125345230103,0.9245635867118835,-1.253061056137085,jumping
1783088028166976000,1.24997607421875,0.9287139511667192,-5.467249507337808,7.670877157711982,0.9511232376098632,0.076756365597248,-1.1239742040634155,jumping
1783088028177020200,1.260020263671875,1.5744791218452154,-4.824674949394166,8.560049518215656,1.0067421197891235,-0.5929648280143738,-0.9626793265342712,jumping
1783088028187063800,1.270063720703125,2.5280951668173075,-3.390623558284342,9.03722220929563,0.9641876816749572,-1.002785325050354,-0.69394451379776,jumping
1783088028197109000,1.28010888671875,2.855860555762052,-1.5500050441935658,8.717906084266305,0.8339377641677856,-1.1804934740066528,-0.3117332756519317,jumping
1783088028207153200,1.290153076171875,3.1689091448292133,-0.2051118728961795,8.931480445885658,0.7076054215431213,-1.297194242477417,0.1376112252473831,jumping
1783088028217197000,1.300197021484375,3.663806585431099,0.4313686059560626,9.571534837701916,0.6327706575393677,-1.5230542421340942,0.6585572957992554,jumping
1783088028227241000,1.310240966796875,3.7316312906399367,0.5486041886091232,9.807683434700966,0.643883466720581,-1.7076359987258911,1.1736080646514893,jumping
1783088028237286100,1.3202861328125,3.155412826657295,0.3357506886102259,9.470902380129694,0.7268948554992676,-1.7495393753051758,1.6061713695526123,jumping
1783088028247330000,1.330330078125,2.7088138452783226,0.0258806565139442,9.234380858165023,0.8260321021080017,-1.6085513830184937,1.9219844341278076,jumping
1783088028257374000,1.3403740234375,2.6900375408768653,0.0136035779386758,9.670849198412895,0.8356001377105713,-1.4014467000961304,2.1354024410247803,jumping
1783088028267419000,1.3504189453125,3.051848991808295,0.601922741016373,10.542806220221518,0.7518115043640137,-1.1224634647369385,2.2813663482666016,jumping
1783088028277463000,1.360463134765625,3.6880168975800274,1.440909294180572,11.370126812446117,0.5667284727096558,-0.9221368432044984,2.4197287559509277,jumping
1783088028287507000,1.3705068359375,3.2277254909351467,2.4934172366678715,12.59729544852972,0.3899920582771301,-0.904742419719696,2.6235978603363037,jumping
1783088028297550800,1.38055078125,1.6017252945587035,3.929036900007724,12.279247736001016,0.2580284476280212,-0.9387922883033752,2.9607338905334473,jumping
1783088028307596000,1.390595947265625,0.8501441261902452,5.02880197597146,11.081651231360436,0.0823985412716865,-1.2486484050750732,3.1858413219451904,jumping
1783088028317640200,1.40064013671875,0.4611100295513868,3.4133351563081145,7.955365130466222,-0.2589578926563263,-1.4496610164642334,2.948112726211548,jumping
1783088028327683800,1.410683837890625,-1.7796791844815014,0.0287907718069851,1.6703548864096402,-0.5886486768722534,-1.0791306495666504,2.3266069889068604,jumping
1783088028337728000,1.42072802734375,-3.2249279691711066,-0.2402249795924872,-6.099739016857743,-0.580274760723114,-0.0680674016475677,1.8568801879882812,jumping
1783088028347773200,1.430773193359375,-5.092619491365552,3.3600551092803475,-13.814093497246503,-0.3129352033138275,1.6591070890426636,1.7802751064300537,jumping
1783088028357816800,1.44081689453125,-3.219067552705109,7.00619218250811,-20.13051536313295,-0.5782217979431152,3.7711548805236816,1.7355402708053589,jumping
1783088028367861000,1.450861083984375,-0.752242554886639,3.349440191763639,-25.661577125167845,-1.3169251680374146,5.285082817077637,1.0229120254516602,jumping
1783088028377905000,1.46090478515625,-2.2827666535407305,-3.920212957561016,-24.02891863994598,-1.151419758796692,4.933935165405273,0.1899594366550445,jumping
1783088028387951000,1.470951171875,-1.975285635472834,-4.830893970039487,-20.305612402319905,-0.3650846481323242,3.041762351989746,-0.0585121661424636,jumping
1783088028397995000,1.4809951171875,-5.033665198093653,-2.172256360554695,-20.230080483734607,0.27434241771698,0.8840645551681519,-0.0516310855746269,jumping
1783088028408039200,1.4910390625,-7.833294748067855,-0.1017296051591634,-22.078156328094003,0.4135674238204956,-0.827864944934845,-0.0326161161065101,jumping
1783088028418083000,1.5010830078125,-6.24890724954009,0.7921209762886167,-25.510929467582702,0.2427855432033538,-1.744004249572754,0.0518982522189617,jumping
1783088028428128000,1.5111279296875,-3.3304823933154344,0.9710388889379798,-29.5792205245018,0.3014169037342071,-2.098628044128418,0.1530648171901703,jumping
1783088028438172200,1.521172119140625,-3.048844549295306,-1.4652740662388504,-29.637151319944856,0.7069721221923828,-2.3228251934051514,0.0275534614920616,jumping
1783088028448216000,1.531216064453125,-4.752753914782405,-3.771392515403032,-26.10329564102888,0.9993579387664796,-2.4335744380950928,-0.145940288901329,jumping
1783088028458260000,1.541260009765625,-5.860702297201752,-3.01690861133039,-22.487990343916415,0.864940345287323,-2.443103551864624,-0.1993911117315292,jumping
1783088028468305200,1.55130517578125,-5.210448582932353,-1.3194229952804744,-20.405408993589877,0.5786529183387756,-2.112877130508423,-0.256435751914978,jumping
1783088028478349000,1.56134912109375,-3.6629409085124727,-0.3824434662021696,-18.97485012077093,0.2583559155464172,-1.55015766620636,-0.3110201358795166,jumping
1783088028488393000,1.57139306640625,-3.7074934592053297,-0.3506416760109365,-17.283896098446846,-0.1285060495138168,-0.9384487867355348,-0.5132869482040405,jumping
1783088028498436900,1.581436767578125,-4.146859858982265,0.0834903302438557,-14.703152460503578,-0.4622454643249511,-0.6630980968475342,-0.7933005094528198,jumping
1783088028508482000,1.59148193359375,-2.911849861748516,1.303559947977215,-11.61117194931507,-0.4345096945762634,-1.0548362731933594,-0.8643757700920105,jumping
1783088028518526000,1.60152587890625,-1.211618307991326,4.079145628410577,-10.190117402422429,0.1070760190486908,-1.553598403930664,-0.5219300985336304,jumping
1783088028528569900,1.61156982421875,-1.430103530266881,5.0707437596440315,-8.816951564908027,0.8325218558311462,-1.9605756998062136,-0.1702431589365005,jumping
1783088028538615000,1.621614990234375,-0.3293167100399732,4.706642736470699,-5.4902405068248505,1.388614296913147,-2.2025978565216064,0.172305017709732,jumping
1783088028548659200,1.6316591796875,1.1144394980043173,4.808831483574211,-1.5888392172396182,1.7348554134368896,-2.179166793823242,0.4491573572158813,jumping
1783088028558702800,1.641702880859375,2.74665023945868,5.605725081092119,2.303573294726014,1.825810790061951,-1.9058161973953247,0.7154605388641357,jumping
1783088028568747000,1.6517470703125,4.424190945719182,6.409516913691163,6.451946188619733,1.7424224615097046,-1.5819145441055298,0.965666115283966,jumping
1783088028578792200,1.661792236328125,5.875685346800089,6.529187833732366,10.574368064177037,1.523660659790039,-1.389753818511963,1.2273011207580566,jumping
1783088028588835800,1.6718359375,7.026731697189807,6.443975648131966,14.192632211095091,1.2645385265350342,-1.379117131233215,1.514095902442932,jumping
1783088028598880000,1.6818798828125,7.696852141445874,6.2201359130859375,16.733126840758324,0.9660565257072448,-1.5196305513381958,1.7787803411483765,jumping
1783088028608924000,1.691923828125,8.128975730487705,5.408028087562323,18.016731065291165,0.6345944404602051,-1.7078840732574463,1.9979681968688965,jumping
1783088028618969000,1.701968994140625,8.306559325793385,4.401377640886604,17.770033601748942,0.291288822889328,-1.8035609722137451,2.115267038345337,jumping
1783088028629013000,1.712012939453125,8.1523320561558,2.894629554617405,16.141360386770963,-0.0465089380741119,-1.6430195569992063,2.08725643157959,jumping
1783088028639057000,1.722056884765625,7.340237090113758,1.0750440378136932,13.972841459178923,-0.2894034683704376,-1.2907365560531616,1.9186222553253176,jumping
1783088028649101000,1.73210107421875,6.322627150267362,-0.4400112735517322,12.462727988129853,-0.3673374056816101,-0.7815529704093933,1.6402535438537598,jumping
1783088028659146000,1.74214599609375,5.277143699589371,-1.2418398432537912,9.939294383382796,-0.3332827091217041,0.028680982068181,1.382635235786438,jumping
1783088028669190000,1.75218994140625,4.311148796167969,-1.2235049259442836,7.5000529735386365,-0.2870963215827942,0.967939019203186,1.1390537023544312,jumping
1783088028679234000,1.762234130859375,3.6779771496027704,-1.2090708154655991,6.47065614978671,-0.3112426102161407,1.936429142951965,0.8946043252944946,jumping
1783088028689278200,1.7722783203125,2.9157655738875268,-1.127218169426173,5.2791030169636,-0.3523730039596557,2.99365758895874,0.6799032092094421,jumping
1783088028699323000,1.782322998046875,2.1222189487099645,-0.990711703787744,4.374220461630821,-0.382095068693161,4.035305023193359,0.4821420013904571,jumping
1783088028709367000,1.792366943359375,1.7509706841304895,-1.2015548868775368,4.637910561028122,-0.4911339581012726,4.835718154907227,0.2768653035163879,jumping
1783088028719411200,1.8024111328125,2.043051011709869,-1.369149295349419,5.936117311409116,-0.6463202834129333,5.226568222045898,0.1344158053398132,jumping
1783088028729455000,1.812455078125,2.446488312232494,-1.381287476910651,7.123816106891631,-0.7197763919830322,5.064830303192139,0.1331731677055359,jumping
1783088028739500000,1.8225,2.5922566733434795,-1.539480143047869,8.941760432359576,-0.7043428421020508,4.196101188659668,0.2159195244312286,jumping
1783088028749544000,1.8325439453125,3.213558141633868,-2.5708444674804807,10.565560488343236,-0.5349617600440979,2.829665184020996,0.2880935966968536,jumping
1783088028759588000,1.842588134765625,3.1176720018059014,-3.996467052941024,10.918209558653832,-0.2708378732204437,1.4717556238174438,0.3019484281539917,jumping
1783088028769632000,1.852632080078125,1.7546470345556735,-4.851665247650444,9.771489839291572,-0.0288790632039308,0.5070322155952454,0.2208682149648666,jumping
1783088028779677000,1.862677001953125,0.6932080359853804,-4.897071200302243,8.240060023969411,0.1214173138141632,0.0395732037723064,0.0269757732748985,jumping
1783088028789721000,1.87272119140625,0.4431714911483227,-4.3533278957277535,7.582355993694066,0.1709789931774139,-0.0673074349761009,-0.1945952326059341,jumping
1783088028799765000,1.882764892578125,0.9808623638160526,-2.9402433048009873,7.712949874287843,0.1813600212335586,-0.0319254621863365,-0.3097851276397705,jumping
1783088028809810000,1.892809814453125,1.4577132755957545,-1.4636777369581162,8.467128657934069,0.0793646797537803,-0.0498080551624298,-0.2718870043754577,jumping
1783088028819854000,1.90285400390625,1.5752357854314147,-0.4126235004104673,9.596229718497394,-0.1006591841578483,-0.2111979275941848,-0.1706627160310745,jumping
1783088028829898200,1.912898193359375,1.6081968286603687,-0.1406017721280455,10.104101499223708,-0.1819817423820495,-0.4561996757984161,-0.0828902423381805,jumping
1783088028839942000,1.92294189453125,1.509178382156044,-0.6131165543995797,9.781242587020992,-0.028802266344428,-0.5786473751068115,0.0118653317913413,jumping
1783088028849987000,1.932987060546875,1.6421335850536822,-0.9427189495131372,8.770376276215911,0.2375356703996658,-0.4128086268901825,0.1241532564163208,jumping
1783088028860031200,1.94303125,1.9680010314226148,-0.6883668795645237,8.846664566126465,0.3988885581493377,-0.2665268778800964,0.2133376747369766,jumping
1783088028870075000,1.953074951171875,2.720859380120039,-0.5595864781334996,9.470384493735432,0.4026484191417694,-0.0056699751876294,0.3044947385787964,jumping
1783088028880119000,1.963119140625,3.702247667506337,-0.0782382549345493,10.32032549856901,0.2084614336490631,0.1747278422117233,0.4339292347431183,jumping
1783088028890164200,1.973164306640625,4.0885438636139035,0.982552362729609,11.83241699169278,-0.1907014101743698,0.0395476594567298,0.6230491399765015,jumping
1783088028900207900,1.983207763671875,4.129364826563,1.2350941683858632,12.085216863763332,-0.6142622828483582,-0.5299888253211975,0.7140194773674011,jumping
1783088028910252000,1.993251953125,2.4493749735847112,-0.0731302642710506,9.310713571739196,-0.7499566674232483,-1.060346245765686,0.7423700094223022,jumping
1783088028920296000,2.0032958984375,-1.9802572864055632,-0.5046247616291046,3.3858810399323698,-0.5215675234794617,-1.2499865293502808,0.7840823531150818,jumping
1783088028930341000,2.013341064453125,-1.621885746794939,0.2476544720061123,-0.2221113038182258,-0.0329888053238391,-1.2244473695755005,0.8554399013519287,jumping
1783088028940385000,2.023385009765625,0.704830523109436,2.168382441730797,-1.3518904097735882,0.2181671112775802,-0.9075874090194702,1.030543088912964,jumping
1783088028950429000,2.033428955078125,1.0270239571407436,4.904076695150136,-3.25018311419785,-0.1896166503429412,-0.1494014114141464,1.203569769859314,jumping
1783088028960473000,2.04347314453125,-1.896708942364156,5.614501092743874,-6.4412751570016145,-1.011465072631836,1.0529154539108276,1.189919114112854,jumping
1783088028970518000,2.05351806640625,-5.875381979939341,3.7840550130993127,-10.769560965931417,-1.6966160535812378,2.205970048904419,0.8783938884735107,jumping
1783088028980562000,2.06356201171875,-4.763687396728992,1.5609170449607073,-13.325351364403964,-1.724853754043579,2.6953558921813965,0.4834061861038208,jumping
1783088028990606000,2.073606201171875,-5.066056478610634,-2.881723311293125,-18.38733547900915,-1.4522203207015991,3.162883043289185,-0.3474406898021698,jumping
1783088029000650000,2.08364990234375,-0.2826768316790461,-5.56633298190236,-21.34792014557123,-1.0538204908370972,2.803408622741699,-1.029789686203003,jumping
1783088029010695000,2.09369482421875,2.49761644192338,-3.673379592679441,-23.06044302562475,-0.1305062174797058,2.5187807083129883,-1.4437063932418823,jumping
1783088029020739000,2.103739013671875,-0.4276589377831667,-1.2976184290990234,-27.150129921793937,0.2018660008907318,2.414132595062256,-1.534401774406433,jumping
1783088029030783000,2.113782958984375,-2.3250313855573532,-0.6257473417833447,-26.976533934819695,-0.037284530699253,1.7115343809127808,-1.6943387985229492,jumping
1783088029040827100,2.1238271484375,-2.6324732406586406,-0.9266384600669144,-25.39706927964687,0.1090201362967491,0.5658837556838989,-1.5360101461410522,jumping
1783088029050872000,2.1338720703125,-1.2153772221334278,-0.3393184640944003,-26.653627676343916,0.4113443195819855,-0.4043210446834564,-1.1423746347427368,jumping
1783088029060916000,2.143916015625,0.3621810879614204,-0.1437701730310916,-28.275867643404005,0.6256285905838013,-0.940027952194214,-0.7744055390357971,jumping
1783088029070960000,2.153960205078125,-0.1730068619746714,-0.0431610963344573,-26.9956618291378,0.8256242275238037,-1.0509995222091677,-0.567157506942749,jumping
1783088029081004000,2.164004150390625,-1.8419249205142256,0.5409333617202937,-23.50081012687683,0.826686680316925,-0.8278907537460327,-0.4862151741981506,jumping
1783088029091049000,2.174049072265625,-1.788120703481883,2.8095810351461172,-18.530204319286344,0.4138871133327484,-0.5036037564277649,-0.3332618474960327,jumping
1783088029101093000,2.184093017578125,-0.3321653774693608,5.204296490043402,-14.114218599593638,-0.130260944366455,-0.3630560636520386,-0.0547653399407863,jumping
1783088029111137000,2.194136962890625,1.309147684981674,5.143620195284486,-12.472818004989623,-0.334060937166214,-0.4341054856777191,0.3231633007526397,jumping
1783088029121181000,2.204180908203125,1.7127321388900278,3.750287768054008,-12.039044310653209,-0.0752254277467727,-0.7133545875549316,0.7104796171188354,jumping
1783088029131226000,2.21422607421875,1.4732001830630004,2.7876807535052297,-9.921505044192076,0.3041029870510101,-1.0802439451217651,1.0107076168060305,jumping
1783088029141270000,2.22427001953125,1.5935717987194655,2.78734465341866,-6.248820155778527,0.5740072727203369,-1.3780786991119385,1.2039514780044556,jumping
1783088029151314000,2.23431396484375,1.5571962708719074,2.733593774008751,-2.7549469431608915,0.7149843573570251,-1.391422986984253,1.2285481691360474,jumping
1783088029161358000,2.244358154296875,1.5686293729037046,3.0141379775732755,0.7314730308413505,0.6884145736694336,-1.2244411706924438,1.2148666381835938,jumping
1783088029171403000,2.254403076171875,1.105784482383728,4.0651340541929,4.923983757147193,0.5664783120155334,-1.032775640487671,1.3022286891937256,jumping
1783088029181447000,2.264447021484375,0.0638496640980243,5.148618441963196,9.086174748513102,0.4270737767219543,-0.9892586469650269,1.4771894216537476,jumping
1783088029191491000,2.274490966796875,0.4498321180813014,5.3532326675355435,13.085829491579531,0.2340571731328964,-1.2102363109588623,1.6654871702194214,jumping
1783088029201536000,2.284535888671875,1.335421651662141,4.678963579167426,15.624973875677584,0.1092502400279045,-1.55767560005188,1.7747113704681396,jumping
1783088029211580200,2.294580078125,1.824837007591128,3.3228090822085736,16.461901669681072,0.0923349037766456,-1.8753390312194824,1.7562495470046997,jumping
1783088029221624000,2.3046240234375,2.1774558288939296,1.492590381579101,16.537842753589153,0.103293590247631,-2.102668523788452,1.6250900030136108,jumping
1783088029231668000,2.31466796875,2.4927231169238686,0.1545997562117874,15.99732834793329,0.0797403305768966,-2.1592085361480713,1.4290770292282104,jumping
1783088029241713200,2.324713134765625,3.015248276902735,-0.5557338943585753,14.944485182142255,-0.0440990217030048,-1.9634584188461304,1.2301151752471924,jumping
1783088029251756800,2.3347568359375,3.189344906875491,-0.7865526746369897,13.221197746968269,-0.2253217995166778,-1.5129421949386597,1.0198737382888794,jumping
1783088029261801000,2.344801025390625,2.7336224155813453,-0.9041527797535062,11.514707132816314,-0.358489453792572,-0.8484379649162292,0.8273614048957825,jumping
1783088029271845000,2.35484521484375,2.3492346834436058,-1.3204628597222268,9.900498496520518,-0.4170244038105011,-0.0801972076296806,0.5829164981842041,jumping
1783088029281889800,2.364889892578125,2.1663526894688605,-1.5379928270995615,8.731638841542601,-0.5743030905723572,0.7033371925354004,0.3947171866893768,jumping
1783088029291934000,2.374933837890625,2.132738881419599,-1.5980968749284743,8.231102810531855,-0.7768809795379639,1.3797465562820437,0.2487266659736633,jumping
1783088029301978000,2.38497802734375,1.6097355825349688,-2.138173181428015,7.278684597042203,-0.8904111981391907,1.9223761558532717,0.0809709727764129,jumping
1783088029312022000,2.39502197265625,0.7072517589069902,-3.5626337373718617,6.046915189164877,-0.8298429250717163,2.2026610374450684,-0.1332254707813263,jumping
1783088029322067000,2.40506689453125,0.2207875078685581,-5.158408014571666,5.215930813735723,-0.5621972680091858,2.1515252590179443,-0.3646085560321808,jumping
1783088029332111000,2.415111083984375,0.7495842954628169,-6.332059580001235,4.84148083050549,-0.0795129463076591,1.78711998462677,-0.5807866454124451,jumping
1783088029342155000,2.425155029296875,1.7687134077005089,-6.574021831715107,5.8855859785676,0.4917171597480774,1.0702048540115356,-0.6679033637046814,jumping
1783088029352199200,2.43519921875,2.490556586539745,-6.1084706048458814,7.169521627011894,0.7918692827224731,0.379358559846878,-0.7672797441482544,jumping
1783088029362244000,2.445244140625,1.9011565694227817,-5.724033480608463,7.890232440820336,0.8372255563735962,-0.1535945385694503,-0.8779736757278442,jumping
1783088029372288000,2.4552880859375,1.3929881438374518,-4.691831536307931,8.826351845937968,0.8329434990882874,-0.4051743447780609,-0.8747720122337341,jumping
1783088029382332200,2.465332275390625,0.6299577990852296,-3.3440517767235636,9.148664230173823,0.7175827026367188,-0.0578627921640872,-0.9847463369369508,jumping
1783088029392374800,2.475374755859375,-0.2081495600916445,-1.9629117454595864,10.360167679613827,0.2015510350465774,-0.0340828970074653,-0.7252494692802429,jumping
1783088029402419700,2.485419677734375,4.170638209454715,-1.5516868598006666,12.891401144456864,-0.2918763160705566,-0.354349136352539,-0.0456603206694126,jumping
1783088029412463900,2.4954638671875,5.78409193572998,-1.1599306447215378,12.390248442852496,-0.6950373649597168,-0.691177487373352,0.316883772611618,jumping
1783088029422507800,2.5055078125,4.284855248004198,-1.7963260756388306,10.085153637647627,-0.8770850300788879,-0.9111049175262452,0.4486048817634582,jumping
1783088029432552000,2.515552001953125,3.16407602558434,-2.756567822360992,7.145243510323763,-0.6600022315979004,-0.947216272354126,0.6202160120010376,jumping
1783088029442596900,2.525596923828125,2.130338250018656,-2.7092168731212616,5.558243783470988,-0.1127228811383247,-0.9158368706703186,0.8330695033073425,jumping
1783088029452640800,2.535640869140625,1.879722736249864,-2.3690876771658655,5.989120002800226,0.5610800385475159,-0.7482569217681885,0.95504492521286,jumping
1783088029462685000,2.545684814453125,2.0548257667861876,-1.8616896514311432,8.013307031825184,0.9603360891342164,-0.5476173162460327,0.9816824793815612,jumping
1783088029472729900,2.555729736328125,2.519350719347596,-1.0579781905919312,10.29837787065506,0.8739541172981262,-0.474106878042221,0.9653272032737732,jumping
1783088029482773800,2.565773681640625,3.2872923631474373,-0.5766758523613215,12.015924131828546,0.5264875292778015,-0.5186159610748291,0.9715657830238342,jumping
1783088029492818000,2.57581787109375,3.397943818169832,-0.6796852681979536,12.504635869532825,0.162570059299469,-0.7636733651161194,0.8393754959106445,jumping
1783088029502861800,2.58586181640625,0.845517343172431,-1.455641730018705,10.967108321857452,-0.0131888212636113,-0.8642151951789856,0.5298148989677429,jumping
1783088029512906800,2.59590673828125,-2.1532865794077516,-1.53789316611737,7.684972318559884,-0.0180307142436504,-0.829582691192627,0.2608198821544647,jumping
1783088029522951000,2.605950927734375,-0.3425155065700411,-0.3327560368388891,5.535381963321567,-0.0286184400320053,-0.8813139796257019,0.0908206105232238,jumping
1783088029532994800,2.615994873046875,2.527927701295912,1.7287603136271237,2.8013644109427926,-0.1680306643247604,-0.6820469498634338,0.112906739115715,jumping
1783088029543038700,2.626038818359375,3.2891900134623047,5.202632940745353,-1.3631921405106782,-0.1321476548910141,-0.2255815714597702,0.4882022142410278,jumping
1783088029553084000,2.636083984375,0.1759063097432255,5.717326676446199,-5.270144049960375,0.1403656303882599,0.1548368781805038,0.7436284422874451,jumping
1783088029563127800,2.6461279296875,-2.5390482302471993,3.3033836662486196,-8.647466520383954,0.357647180557251,0.4560130536556244,0.7497172355651855,jumping
1783088029573172000,2.656171875,-4.220487697511911,0.1721601089522242,-13.060391098940372,0.3834308385848999,0.5851033926010132,0.3743593394756317,jumping
1783088029583215900,2.6662158203125,-6.589304156520963,-3.317539909633994,-17.421922759389876,0.3252963721752167,0.9764962792396544,-0.3382333517074585,jumping
1783088029593260800,2.6762607421875,-7.563014748886228,-5.149926601952314,-22.601118710446357,0.0334581322968006,1.6207674741744995,-1.2379902601242063,jumping
1783088029603305000,2.686304931640625,-4.866187401738762,-2.7912267555490136,-25.19298463090658,-0.0383737534284591,1.9561690092086792,-1.6915607452392578,jumping
1783088029613348900,2.696348876953125,-2.4365089161403475,3.174527861493826,-22.601284714663027,0.1670009642839431,1.3696972131729126,-1.495247483253479,jumping
1783088029623392800,2.706392822265625,-1.4543717100828886,6.487434850630164,-18.39457069095969,0.2623097896575928,0.299083799123764,-1.0235652923583984,jumping
1783088029633438000,2.71643798828125,-3.607775486129522,6.065302494248748,-17.428035689312217,0.2971660494804382,-0.7512235641479492,-0.7732254266738892,jumping
1783088029643481900,2.72648193359375,-6.405211909973621,2.6834952796265483,-19.47151486330628,0.199541226029396,-1.478669285774231,-0.8634212017059326,jumping
1783088029653525800,2.73652587890625,-6.3095584098577495,0.0313530235104262,-23.09236961123943,0.0288970507681369,-1.7100154161453247,-1.0066144466400146,jumping
1783088029663570000,2.74656982421875,-5.1767105639815325,1.1768734500855207,-24.819213277590272,0.0215992331504821,-1.6804025173187256,-0.9708051085472108,jumping
1783088029673614800,2.75661474609375,-5.433314504510164,2.937882420888543,-23.425163642001152,0.0878054127097129,-1.278370380401611,-0.8605462312698364,jumping
1783088029683658800,2.76665869140625,-5.837373444062471,3.7004128532946106,-23.278102610731125,-0.0759668052196502,-0.4770862460136413,-0.736616849899292,jumping
1783088029693703000,2.776702880859375,-3.34269627046138,4.497502850167453,-22.218240506088733,-0.3428943455219269,0.4094771444797516,-0.4833062887191772,jumping
1783088029703746800,2.786746826171875,-2.336352990038693,5.00953730353117,-20.46188082239628,-0.4806953370571136,1.2699644565582275,-0.2318028956651687,jumping
1783088029713791700,2.796791748046875,-2.566434834344685,3.935392406514287,-17.095647316741942,-0.4083510935306549,1.7581279277801514,-0.1360739767551422,jumping
1783088029723836000,2.8068359375,-2.335397881270945,2.77869139136374,-13.462535144782066,-0.2490444034337997,1.8652993440628052,-0.0830548927187919,jumping
1783088029733879800,2.8168798828125,-1.8362721554495391,2.89219560546875,-10.36566803059578,-0.0764145851135253,1.702260136604309,-0.0479861237108707,jumping
1783088029743924000,2.826924072265625,-1.1421639557540415,3.897430632388592,-7.507821269452571,0.1420632153749466,1.4275057315826416,0.0119622498750686,jumping
1783088029753969000,2.836968994140625,-0.007098141567409,4.569274831697345,-3.990179058712721,0.2964972555637359,0.9773356318473816,0.0550239644944667,jumping
1783088029764012800,2.8470126953125,0.8719143517106771,4.766988191840053,0.3904138605594635,0.3179728984832763,0.4943433105945587,0.0637982413172721,jumping
1783088029774057000,2.857056884765625,0.7795961334973573,4.313380500742793,5.261515337824821,0.2476992756128311,-0.0296085979789495,0.0110791055485606,jumping
1783088029784100900,2.867100830078125,0.2054366478711366,3.151223558273911,10.112277791416645,0.1570287942886352,-0.5648372173309326,-0.0942097902297973,jumping
1783088029794145800,2.877145751953125,-0.5996861410707235,1.7021286195501684,13.52500416817665,0.1035775542259216,-0.964264750480652,-0.2866796255111694,jumping
1783088029804190000,2.88718994140625,-0.6618548663444817,0.4628675407432019,15.395939494597911,-0.0613323226571083,-1.0907498598098757,-0.5880280137062073,jumping
1783088029814233900,2.89723388671875,-0.3096061935283243,-0.9263837546534835,16.69198819016218,-0.3463313281536102,-1.2025872468948364,-0.8750185370445251,jumping
1783088029824277800,2.90727783203125,0.9952595763504504,-1.2181468329772351,17.26218227928877,-0.5329717397689819,-1.3275569677352903,-0.9938055872917176,jumping
1783088029834323000,2.917322998046875,2.43046685949713,-0.9850884570784866,17.33833145298958,-0.6076558232307434,-1.525383472442627,-0.998834192752838,jumping
1783088029844366800,2.927366943359375,3.68311655831784,-0.930741657602042,16.210456719350812,-0.6249507069587708,-1.6374951601028442,-0.9630674123764038,jumping
1783088029854411000,2.937410888671875,4.047608334374427,-1.4091133492082355,13.882784171634912,-0.5875562429428101,-1.421292781829834,-0.90312922000885,jumping
1783088029864454700,2.94745458984375,3.853286662496626,-1.5769180394299327,11.247062742835285,-0.5158887505531311,-0.9440548419952391,-0.817462146282196,jumping
1783088029874499800,2.957499755859375,3.481730939403176,-1.5989343486659229,9.317777518776058,-0.3979144394397735,-0.3600577116012573,-0.730190634727478,jumping
1783088029884544000,2.9675439453125,3.2102187680780885,-1.7574229290097951,8.240581417495012,-0.2452679425477981,0.1705311387777328,-0.5944344401359558,jumping
1783088029894587600,2.977587646484375,3.1851638217985627,-1.6734873392164706,7.074935463866591,-0.1097527295351028,0.6665675640106201,-0.4515872299671173,jumping
1783088029904632800,2.9876328125,3.4749992930606006,-1.5305819663211702,5.991099778440594,-0.0336269475519657,1.0146125555038452,-0.3194155395030975,jumping
1783088029914677000,2.997677001953125,3.5440324972763655,-1.6726527880884705,5.751752093139291,0.0311645679175853,1.2143875360488892,-0.1661071926355362,jumping
1783088029924720600,3.007720703125,3.2087869817093013,-2.098473623724282,5.838286467254162,0.1052683517336845,1.2563629150390625,-0.0459717251360416,jumping
1783088029934764800,3.017764892578125,3.3090973677203057,-2.604649121926725,6.601217881676554,0.1164562925696373,1.136104702949524,0.0272287167608737,jumping
1783088029944810000,3.02781005859375,3.3068285460054874,-3.1423084304124114,7.583183092167973,-0.0148975178599357,0.9216606020927428,0.0570667088031768,jumping
1783088029954854000,3.03785400390625,2.9224384757801887,-3.723124159057438,8.593057469326258,-0.2291624099016189,0.6914495229721069,0.0415194407105445,jumping
1783088029964897800,3.047897705078125,2.558495858038962,-4.122655684313178,9.621289925473928,-0.4538973569869995,0.4119750261306762,0.0117763830348849,jumping
1783088029974942000,3.05794189453125,2.3623092690721155,-3.946957172101736,10.407717366296051,-0.6300132274627686,0.0655896440148353,0.0049331239424645,jumping
1783088029984987000,3.06798681640625,2.2945532451853157,-3.406986956325173,10.597422776550054,-0.6904008388519287,-0.1808670163154602,0.0122994799166917,jumping
1783088029995030800,3.07803076171875,2.3303724543243645,-2.6890754178464413,10.176526099443436,-0.6748464107513428,-0.3493561744689941,0.047239888459444,jumping
1783088030005074700,3.08807470703125,2.5850910194978116,-1.9783172582536936,9.689087450414895,-0.5665862560272217,-0.4553323686122894,0.106104627251625,jumping
1783088030015118800,3.098118896484375,3.197601570828259,-1.5757041335955262,9.13867592012286,-0.3609012365341186,-0.4855616688728332,0.1980241686105728,jumping
1783088030025163800,3.108163818359375,3.9851889953404664,-1.4515902626708148,8.616116857874394,-0.1192875280976295,-0.3826406896114349,0.3061221241950989,jumping
1783088030035207700,3.118207763671875,4.339515935735404,-1.4113456383049487,8.160715853619575,0.032015711069107,-0.1048722043633461,0.4117684066295624,jumping
1783088030045251800,3.128251953125,4.208825609029829,-0.987108710859716,8.103534999760985,0.0610934123396873,0.20601387321949,0.5488501191139221,jumping
1783088030055296000,3.1382958984375,3.7904543587476014,-0.5167930460676551,8.384482523429392,0.0818937644362449,0.4537954330444336,0.7033566236495972,jumping
1783088030065340700,3.148340576171875,2.4791230461165306,-0.1371627375900745,8.302253737553954,0.1966972053050995,0.6747138500213623,0.738530695438385,jumping
1783088030075384800,3.158384765625,1.233781916743517,-0.2523267016008496,8.237183007228374,0.3682183623313904,0.8102335929870605,0.7235503792762756,jumping
1783088030085429000,3.168428955078125,0.9108490625217556,-0.5049062089189886,8.510361650460958,0.5009945034980774,0.8141240477561951,0.6375100016593933,jumping
1783088030095473000,3.178472900390625,0.3448566628687083,-0.3942763812065124,8.658018309536576,0.5723310112953186,0.7134767770767212,0.4606939256191253,jumping
1783088030105517800,3.188517822265625,0.00734802467525,0.5413149083837866,8.055048909011482,0.6164044141769409,0.5195851922035217,0.3149029910564422,jumping
1783088030115562000,3.19856201171875,1.0711324173279106,1.1069390592463313,7.762074847462773,0.4230192303657532,0.1388540863990783,0.08712999522686,jumping
1783088030125606000,3.20860595703125,1.3604019252702593,1.3668351731881498,6.754577720829844,0.026366788893938,-0.2203469574451446,-0.1417377740144729,jumping
1783088030135649800,3.21864990234375,1.6520263257756829,1.888480919983983,4.822995910266042,-0.2614660859107971,-0.510478675365448,-0.2104124426841735,jumping
1783088030145695000,3.228695068359375,1.4583439747147262,2.7842025560006496,2.9555957722336053,-0.3429758548736572,-0.730384111404419,-0.2470668703317642,jumping
1783088030155739000,3.23873876953125,-0.8345249706454575,3.1535166376471517,0.2935293573439121,-0.5508941411972046,-0.8180697560310364,-0.4314225912094116,jumping
1783088030165783000,3.248782958984375,-3.4228038263991474,2.0148715036690232,-2.585306415814161,-0.9648566246032716,-0.9083849191665648,-0.6633747220039368,jumping
1783088030175826700,3.25882666015625,-5.6862944093227386,1.051109766127169,-7.532194663208722,-1.404455304145813,-0.621620774269104,-0.9338490962982178,jumping
1783088030185872000,3.268871826171875,-7.2635589241027825,0.7110749704569578,-14.474508540046214,-1.5906699895858765,0.3916059136390686,-1.3231550455093384,jumping
1783088030195916000,3.278916015625,-7.531238385397195,0.6242629484444856,-22.948864811146255,-1.4441548585891724,2.079451322555542,-1.5768635272979736,jumping
1783088030205959700,3.288959716796875,-0.2401991875641047,-0.7139315289318561,-27.7997394929409,-1.050283908843994,2.9392659664154053,-2.0879106521606445,jumping
1783088030216003800,3.29900390625,0.7688255870275199,-4.56361373719573,-26.73282805430889,-0.3499707877635956,2.9190709590911865,-2.491310358047486,jumping
1783088030226049000,3.309049072265625,-5.142990080687404,-3.863934605500102,-25.38668583279848,0.3869223296642303,2.4359967708587646,-2.5286598205566406,jumping
1783088030236093000,3.319093017578125,-9.311640623456238,-1.783102436928451,-22.116781534564495,0.6727564334869385,1.492837905883789,-2.663360357284546,jumping
1783088030246136800,3.32913671875,-8.738229910370707,-0.9016612551987172,-19.715560935556887,0.3680343627929687,0.2909880578517914,-2.5299694538116455,jumping
1783088030256180700,3.3391806640625,-5.832390979474782,1.3239455872714518,-19.991964970576763,-0.2418255358934402,-0.8492196202278137,-1.9752941131591797,jumping
1783088030266226000,3.349225830078125,-4.896671971851587,1.7714821417614817,-23.792100765383243,-0.5697308778762817,-1.51993989944458,-1.479364991188049,jumping
1783088030276269800,3.359269775390625,-5.251795323321223,0.1523176366239786,-27.374607370221614,-0.4063965380191803,-1.9399150609970093,-1.166694164276123,jumping
1783088030286313700,3.369313720703125,-4.647626483878493,0.1156730825766921,-27.23419819805622,-0.1506465524435043,-2.2454755306243896,-0.842734158039093,jumping
1783088030296359000,3.37935888671875,-4.001586587911844,2.8849864047423,-25.666917317152024,0.2556000053882599,-2.339310884475708,-0.3159267902374267,jumping
1783088030306402800,3.38940283203125,-3.628460839022696,5.6445046013414855,-22.011448351955412,0.7688291668891907,-1.9492207765579224,0.2659714519977569,jumping
1783088030316446700,3.39944677734375,-2.9898239127889275,5.453339055407047,-16.287887165033816,0.6960748434066772,-1.54218590259552,0.6573700904846191,jumping
1783088030326491000,3.409490966796875,-2.6321193126544356,3.6963162316307425,-10.342006584501268,0.3663069903850555,-1.1224931478500366,0.8611034154891968,jumping
1783088030336535800,3.419535888671875,-2.4024893037691712,2.5077882918477057,-5.513446610367298,0.1236956566572189,-0.9167391657829284,0.94440495967865,jumping
1783088030346579700,3.429579833984375,-1.0664113801553845,2.1873358562648293,-1.9562281760424376,-0.0502294450998306,-0.8209222555160522,0.977339804172516,jumping
1783088030356624000,3.439623779296875,0.7319073306053876,2.427812253335118,-0.1885071403801441,-0.1374306678771972,-0.7782920002937317,0.985547423362732,jumping
1783088030366667800,3.449667724609375,2.395760287775099,2.4105212190553544,0.6023457156687975,0.1401052922010421,-0.7151776552200317,0.9153059720993042,jumping
1783088030376712700,3.459712646484375,3.4798853115364907,2.122484029386938,1.795756459057331,0.4710906744003296,-0.5137840509414673,0.8640707731246948,jumping
1783088030386756900,3.4697568359375,4.013043509210646,2.4306810867696997,4.951787709873915,0.5978236794471741,-0.3882092833518982,0.8850688338279724,jumping
1783088030396801500,3.479801513671875,3.892687821775674,2.5646315843150016,8.92446384512186,0.5307440161705017,-0.387582391500473,0.940761923789978,jumping
1783088030406845400,3.489845458984375,3.4776205814749,1.953008044952154,12.201532043635844,0.3902699649333954,-0.5259993672370911,0.8929741382598877,jumping
1783088030416890400,3.499890380859375,3.615850948296487,1.269339552336931,14.395876317358017,0.1745642870664596,-0.6780706644058228,0.8162148594856262,jumping
1783088030426934500,3.5099345703125,3.985990667112171,0.639710108423233,15.84893109962344,-0.0559544116258621,-0.9136845469474792,0.708492636680603,jumping
1783088030436978400,3.519978515625,4.626776003551483,0.4020347402483225,16.97091969783306,-0.3406130373477936,-1.118513822555542,0.6581817865371704,jumping
1783088030447022300,3.530022216796875,4.857924600306153,-0.1299260643348097,16.866750882828235,-0.5657063126564026,-1.272627592086792,0.5838956832885742,jumping
1783088030457067500,3.540067626953125,4.60678827753365,-1.001403778193891,15.383966148209572,-0.6567059755325317,-1.34077787399292,0.4862296283245086,jumping
1783088030467111400,3.550111328125,4.045887209670245,-1.841247459644079,12.841362563568351,-0.5042637586593628,-1.1798195838928225,0.3399852216243744,jumping
1783088030477155300,3.5601552734375,3.2928333384007216,-2.49044523511976,10.230898325622082,-0.2046014070510864,-0.7930827140808105,0.1365809738636016,jumping
1783088030487199200,3.57019921875,3.19712372418344,-3.0595044749975204,8.317771040159464,0.0803546607494354,-0.2728357315063476,-0.0749792233109474,jumping
1783088030497244400,3.580244384765625,3.512746547652781,-2.948819117705524,6.8592235056966535,0.250033438205719,0.3997605144977569,-0.2135727852582931,jumping
1783088030507288600,3.59028857421875,3.924509193450212,-2.26252319919616,5.9788996375590555,0.2875991463661194,1.0830835103988647,-0.2497793585062027,jumping
1783088030517332200,3.600332275390625,3.9445968727111818,-1.9672849921077489,5.875220067375898,0.2254619896411895,1.65518057346344,-0.2280399650335312,jumping
1783088030527376400,3.61037646484375,3.4519311366841197,-2.254393376493454,6.124739018079638,0.0848535895347595,1.9671462774276731,-0.172683373093605,jumping
1783088030537421600,3.620421630859375,2.7523843991965053,-2.557422968110442,6.370698230475187,-0.0810970366001129,1.9678338766098025,-0.0654200315475463,jumping
1783088030547465200,3.63046533203125,2.3813567916303873,-3.432764956182241,6.512316778430343,-0.2370747029781341,1.670171141624451,0.029590593650937,jumping
1783088030557509400,3.64050927734375,2.810565662269294,-4.51959982342422,6.837286399176716,-0.2195609509944915,1.144111156463623,0.1167135089635849,jumping
1783088030567553300,3.65055322265625,2.9552096955254674,-5.196363358956575,7.3329802508533,-0.0996371284127235,0.4627249240875244,0.163641408085823,jumping
1783088030577598200,3.66059814453125,2.7963500899121163,-5.5785003895580765,8.112033363515138,0.0668384060263633,-0.1657395362854004,0.1792520582675933,jumping
1783088030587642400,3.670642333984375,2.575493170069158,-5.522429542768001,8.322757596400379,0.1865057051181793,-0.5615648031234741,0.1534193456172943,jumping
1783088030597686300,3.680686279296875,2.5637965947955847,-5.153883815145492,8.455746263176202,0.1985964626073837,-0.7841073274612427,0.1205625906586647,jumping
1783088030607730400,3.69073046875,2.8176322396546603,-4.4210403727337715,8.94380333636403,0.155761182308197,-0.9403064846992492,0.1313264816999435,jumping
1783088030617775400,3.700775390625,3.2378993866860863,-3.5520728881299495,8.952259030020237,0.1508899927139282,-0.964004635810852,0.1774766594171524,jumping
1783088030627819300,3.7108193359375,3.496760750752687,-2.753804202866554,8.65802883093059,0.2258016616106033,-0.9256117343902588,0.2630247473716736,jumping
1783088030637863400,3.720863525390625,3.7050501577064394,-2.3010993058279157,8.482820148062705,0.3751858174800873,-0.8116257786750793,0.3258079588413238,jumping
1783088030647907600,3.730907470703125,3.808294259081781,-2.3750465855702756,7.783623246926068,0.5195003151893616,-0.4655052125453949,0.2952190935611725,jumping
1783088030657952300,3.7409521484375,4.126187365570664,-1.7762661611676216,7.807272418060898,0.4507097899913788,-0.1055976375937461,0.2137401849031448,jumping
1783088030667996400,3.750996337890625,4.591190603168308,-0.6380886447012424,9.494732753050329,0.2900370955467224,0.0940668135881424,0.2294166386127472,jumping
1783088030678040600,3.76104052734375,4.753216271597147,-0.5810735027983784,10.575950949454308,0.1701991111040115,0.2229986935853958,0.255054622888565,jumping
1783088030688084500,3.77108447265625,4.556993150012195,-0.8311810670450329,10.66667576099634,0.0400677397847175,0.3067678809165954,0.2147985845804214,jumping
1783088030698129400,3.78112939453125,3.5172055728882547,-0.8092612039208412,10.444175165599583,-0.1097861975431442,0.2960095107555389,0.1693315058946609,jumping
1783088030708173600,3.791173583984375,2.8018691455945373,-0.3700605160996317,9.783301857638358,-0.1468777358531952,0.1041441261768341,0.174434557557106,jumping
1783088030718217500,3.801217529296875,1.4171557858884334,0.1276066814765334,8.445484396880865,-0.067946970462799,-0.2571213841438293,0.2902996242046356,jumping
1783088030728261400,3.811261474609375,0.1833189240872859,1.683548129981756,6.513928305280208,0.1767929643392563,-0.6013971567153931,0.5515202879905701,jumping
1783088030738306300,3.821306396484375,0.8211997712567448,3.2332758185386656,4.02477632484138,0.4315384328365326,-0.5318026542663574,0.7568958401679993,jumping
1783088030748350500,3.8313505859375,1.3765978577896951,3.1397476400136948,0.2662941444158554,0.3423444926738739,0.0255055949091911,0.8730685710906982,jumping
1783088030758394400,3.841394287109375,0.0275610838815569,3.595257949861884,-2.223234852641821,-0.1391808539628982,0.637722909450531,1.1412816047668457,jumping
1783088030768439300,3.851439208984375,-3.892323372377455,4.84231172837168,-5.018758136340976,-0.7624301910400391,1.15689218044281,1.5481661558151243,jumping
1783088030778483500,3.8614833984375,-6.788245012632012,4.60533281802833,-10.434798265445233,-1.2644819021224976,1.6514225006103516,1.579295635223389,jumping
1783088030788527600,3.871527587890625,-5.577304457771778,1.2186886847689746,-18.285130657553673,-1.4363690614700315,2.648527145385742,1.2497093677520752,jumping
1783088030798571300,3.8815712890625,-4.207693974651396,-4.65691073731333,-24.969718311834335,-1.071430206298828,3.6893234252929688,0.515842616558075,jumping
1783088030808616400,3.891616455078125,-3.886002352662384,-6.765314803421497,-26.474892572915554,-0.216812789440155,4.0643205642700195,-0.0186541266739368,jumping
1783088030818660600,3.90166064453125,-4.731806988343596,-2.976821807874739,-26.71716286766529,0.6793419718742371,3.754624128341675,-0.2438337057828903,jumping
1783088030828704300,3.911704345703125,-4.594645419797301,2.7927497273325916,-24.260868616211415,0.8484953045845032,2.8026013374328613,-0.0397138893604278,jumping
1783088030838748400,3.92174853515625,-5.412574498820304,6.893579948806762,-23.7163163333416,0.5598922371864319,2.199756383895874,0.1019630804657936,jumping
1783088030848793600,3.931793701171875,-5.8887295372903345,7.273129885524511,-24.958717609870433,0.2282433360815048,1.556224703788757,0.1211259812116622,jumping
1783088030858837200,3.941837158203125,-4.117774342012405,6.124619191092252,-23.20016947622299,-0.0995518565177917,0.3713659048080444,0.2400678098201751,jumping
1783088030868881400,3.95188134765625,-1.728656414861232,5.955476091873646,-23.317193096625804,0.0626431554555893,-0.792268693447113,0.5160259008407593,jumping
1783088030878925300,3.96192529296875,-2.3600476077504453,5.050694658827782,-24.052893389773367,0.6004844903945923,-1.599702000617981,0.6800025701522827,jumping
1783088030888970500,3.971970458984375,-3.3743609902694818,3.3605423082754013,-23.82373742814064,0.940735936164856,-1.969947338104248,0.5702894926071167,jumping
1783088030899014400,3.982014404296875,-2.586032392001152,2.4773428847014904,-21.52990752879381,0.8729880452156067,-2.1426148414611816,0.331831157207489,jumping
1783088030909685200,3.992685302734375,-1.2610187371067705,2.6370912558481097,-18.782577490377424,0.5303388237953186,-2.2146828174591064,0.0650186240673065,jumping
1783088030919729400,4.0027294921875,-0.9113713328301906,2.1951547133222222,-15.675123515725137,0.3482002913951874,-2.372187852859497,-0.303686112165451,jumping
1783088030929774300,4.0127744140625,-1.0720175295993686,1.6368974379658698,-11.479182230448725,0.4652267396450043,-2.611612319946289,-0.6073533296585083,jumping
1783088030939818500,4.022818603515625,-0.6964461411237717,1.7981562136754392,-6.615208997628092,0.81369948387146,-2.722215414047241,-0.8786453008651733,jumping
1783088030949862400,4.0328623046875,-0.2444698506206274,2.4111533794790505,-1.6743571077883244,0.7393113970756531,-2.722990036010742,-1.0461933612823486,jumping
1783088030959906300,4.04290625,0.5993354279369115,2.687626095820963,2.817736869072914,0.4560722410678863,-2.616403579711914,-1.199721097946167,jumping
1783088030969951500,4.052951416015625,1.77417094245404,2.3555837602093814,6.416426546949148,0.0943057909607887,-2.403224229812622,-1.3159681558609009,jumping
1783088030979995400,4.062995361328125,2.629641524364054,2.332595537201315,8.284266245442629,-0.1043950542807579,-2.247213840484619,-1.3152848482131958,jumping
1783088030990039300,4.073039306640625,2.9495687670290467,1.7765194052763282,9.908401232469082,-0.0124451434239745,-2.075974464416504,-1.224361777305603,jumping
1783088031000083500,4.08308349609375,3.092862262459099,1.0846958093866703,11.08895190976262,0.1427758634090423,-1.780800700187683,-1.0897669792175293,jumping
1783088031010128400,4.09312841796875,4.091341969899833,0.5226503937937319,12.14906302073002,0.2061152905225753,-1.4137228727340698,-0.8845018744468689,jumping
1783088031020172300,4.10317236328125,5.597804809486866,0.6404581503115594,12.553921586227416,0.2072165161371231,-0.9359261989593506,-0.5639023184776306,jumping
1783088031030216400,4.113216552734375,6.81038670181334,0.6909449133589863,13.020641272354124,0.1242619603872299,-0.4174127280712127,-0.2235663086175918,jumping
1783088031040260400,4.12326025390625,7.216389761170745,0.2439452422246336,13.39913790062666,-0.0778650417923927,0.1768913865089416,0.026509840041399,jumping
1783088031050305300,4.13330517578125,6.68241031024158,-0.5195220326401293,12.979344800847768,-0.3305622041225433,0.9873165488243104,0.1710266172885894,jumping
1783088031060349400,4.143349365234375,5.80136338852644,-1.0350471045985816,12.66113459123373,-0.5338737964630127,1.7271692752838137,0.2467773109674453,jumping
1783088031070393300,4.153393310546875,4.644736315394938,-1.047035794686526,12.137992176139354,-0.5864609479904175,2.3634989261627197,0.311219573020935,jumping
1783088031080438300,4.163438232421875,3.195330995547771,-0.962101549244672,10.6247152726233,-0.5281172394752502,2.9170968532562256,0.3245513439178467,jumping
1783088031090482400,4.173482421875,2.3335125059157606,-1.144356497362256,9.011343087151646,-0.4818515479564667,3.3100273609161377,0.3438703715801239,jumping
1783088031100526300,4.1835263671875,2.3959897126168013,-1.1985986674204467,7.526684959876537,-0.4706947803497314,3.4936397075653076,0.4027192890644073,jumping
1783088031110570500,4.193570556640625,2.488427465556562,-1.5333943933933971,5.999745441710949,-0.406510442495346,3.447582006454468,0.4416966140270233,jumping
1783088031120615400,4.203615478515625,2.9713617889031765,-2.078844209624827,4.961299050062895,-0.3061508238315582,3.2052340507507324,0.4837583005428314,jumping
1783088031130659300,4.213659423828125,2.7502152384638783,-2.1197195331096648,4.745788751944899,-0.0818934515118599,2.8669142723083496,0.5374689698219299,jumping
1783088031140703500,4.223703369140625,1.42587159178555,-2.496446813622117,5.168607921546697,0.192221462726593,2.61946439743042,0.5116724967956543,jumping
1783088031150747400,4.233747314453125,1.874313424552232,-3.2077921254530546,7.222203415885567,0.2684278190135956,2.0123555660247803,0.4368645548820495,jumping
1783088031160792300,4.243792236328125,1.439393775051087,-3.874302270257473,9.024885874813794,0.1549393385648727,1.362846851348877,0.2304642349481582,jumping
1783088031170836500,4.25383642578125,0.0463845884256064,-4.155222613658011,9.7669258923769,0.0559835508465766,0.7993606925010681,-0.0331257656216621,jumping
1783088031180880400,4.26388037109375,-0.2254834105998277,-4.2550811642482875,10.906726041609048,-0.0293590445071458,0.218299925327301,-0.2505747377872467,jumping
1783088031190924300,4.27392431640625,0.3966542162537574,-4.358035050505399,11.664012728142737,-0.2108998000621795,-0.4456547498703003,-0.4588361382484436,jumping
1783088031200969500,4.283969482421875,1.2253835062325,-4.2340582499638195,11.33761336685419,-0.4471677243709564,-1.152881145477295,-0.6155301332473755,jumping
1783088031211013400,4.294013427734375,1.727024137484282,-3.5924420156583188,10.607321070230007,-0.596265971660614,-1.920027256011963,-0.6263120174407959,jumping
1783088031221057500,4.3040576171875,2.1343654597081243,-3.0464304738909003,9.703874685180187,-0.6101930141448975,-2.393707275390625,-0.434664249420166,jumping
1783088031231101400,4.314101318359375,3.144470576882362,-1.861857993735373,5.585401839509606,-0.1600875854492187,-2.8467493057250977,-0.1556877344846725,jumping
1783088031241146400,4.324146484375,2.6821824434623123,-2.8945550280764696,8.69930133703947,0.3786565959453583,-3.0454068183898926,0.1373151242733001,jumping
1783088031251190500,4.3341904296875,2.8485160382181403,-2.4348197940096257,7.649525157603621,0.6389952898025513,-3.2895569801330566,0.3633001148700714,jumping
1783088031261234200,4.344234130859375,3.6463466243252154,-2.2956609141662714,8.322878007909654,0.7428828477859497,-3.2933101654052734,0.5503911375999451,jumping
1783088031271278300,4.3542783203125,4.199743892429769,-2.0088100116729737,8.212886185839771,0.7705205678939819,-3.0270252227783203,0.6848530769348145,jumping
1783088031281323500,4.364323486328125,5.095425780957937,-1.4429808397576211,8.129388402941823,0.7630504965782166,-2.521263837814331,0.7523457407951355,jumping
1783088031291367200,4.3743671875,5.516414812523126,-1.1888190316841003,8.928781123799086,0.6628793478012085,-1.8790374994277952,0.7813631296157837,jumping
1783088031301411300,4.384411376953125,4.852924015539884,-0.5972533609658479,10.268882896101474,0.4657228887081146,-1.2782214879989624,0.8667371273040771,jumping
1783088031311455500,4.39445556640625,3.057669368524849,0.5805743211045861,11.447020667034389,0.2214192450046539,-0.7591515779495239,1.074022889137268,jumping
1783088031321500400,4.40450048828125,3.7205940560579296,2.644947814567387,10.214816959393024,-0.0436374545097351,-0.5695627331733704,1.3472707271575928,jumping
1783088031331544300,4.41454443359375,4.704168163050711,3.797406954364478,7.532052624389529,-0.372232049703598,-0.502823531627655,1.4178452491760254,jumping
1783088031341588500,4.42458837890625,3.0594182580187916,3.6354943909212944,2.814847577372193,-0.7063231468200684,-0.1334231495857238,1.3697052001953125,jumping
1783088031351632400,4.43463232421875,0.2083592573195695,3.749617029185593,-3.017885931929946,-0.7967593669891357,0.6256281733512878,1.33279550075531,jumping
1783088031361677300,4.44467724609375,-4.200307956053316,4.0478205158203835,-8.049024826416373,-0.6691785454750061,1.468960165977478,1.1139100790023804,jumping
1783088031371721500,4.454721435546875,-8.669321209317445,3.3404449844032524,-12.867173881173134,-0.5499307513237,2.585038661956787,0.7158622741699219,jumping
1783088031381765400,4.464765380859375,-7.857295216858387,4.467403772240877,-17.46712500616312,-0.5486066341400146,3.6312568187713623,0.4914493858814239,jumping
1783088031391809300,4.474809326171875,-3.0049244512870907,4.672482984976471,-21.10353154349327,-0.6053783893585205,4.249476432800293,0.1819780170917511,jumping
1783088031401854200,4.484854248046875,-3.4189521194070576,-2.008378049996495,-20.70596781117916,-0.6092144250869751,4.180747985839844,-0.8390845656394958,jumping
1783088031411898400,4.4948984375,-5.18630139914751,-1.69788294480443,-20.302935292065143,-0.2096126675605774,3.630527257919311,-1.5757466554641724,jumping
1783088031421942300,4.5049423828125,-4.48730645032376,1.7457196317344903,-18.368093018400668,0.2748320400714874,2.457069158554077,-1.989876627922058,jumping
1783088031431986400,4.514986328125,-2.781615462116897,3.247327432505786,-15.375890393781662,0.417810320854187,1.1244391202926636,-2.2319154739379883,jumping
1783088031442031400,4.52503125,-4.879817283162474,2.862381189702451,-16.27357339299917,0.1622762978076934,0.3767423033714294,-2.4066250324249268,jumping
1783088031452075300,4.5350751953125,-6.788260794723033,1.2194964940205215,-18.39925037320852,-0.2091558426618576,-0.1046206206083297,-2.5679750442504883,jumping
1783088031462119400,4.545119384765625,-6.356531757956743,-0.1214776772022247,-20.22664583311081,-0.3153150081634521,-0.7525767087936401,-2.700094223022461,jumping
1783088031472164000,4.5551640625,-5.910135313412547,0.1569187006786465,-22.6650467004776,-0.1328269839286804,-1.1798266172409058,-2.6509013175964355,jumping
1783088031482208300,4.565208251953125,-5.877713637757301,1.7024579976350067,-23.170784391784668,0.1542031913995742,-1.3040753602981567,-2.297588348388672,jumping
1783088031492252400,4.57525244140625,-5.221355176872015,2.5283336517482993,-21.129666686224937,0.3717403411865234,-1.16670823097229,-1.859391450881958,jumping
1783088031502296300,4.58529638671875,-3.6547488342285153,3.072883304269612,-18.78958240070343,0.4661693871021271,-0.8940093517303467,-1.3954962491989136,jumping
1783088031512341200,4.59534130859375,-3.292591638599336,3.259222452960908,-15.765054546540975,0.4664249718189239,-0.4722996056079864,-0.88583904504776,jumping
1783088031522385400,4.605385498046875,-2.1819626387938857,2.079425808905065,-11.50413897705078,0.3769520819187164,-0.1814797222614288,-0.5437855124473572,jumping
1783088031532429300,4.61542919921875,-1.6989204711586237,1.5812939164265989,-9.23401787007153,0.1603121012449264,0.3305086493492126,-0.3380362093448639,jumping
1783088031542473200,4.62547314453125,-1.4139327321887016,1.77619426497519,-7.01751320246756,-0.2114611864089965,0.8314985036849976,-0.3140131533145904,jumping
1783088031552518400,4.635518310546875,0.0882177971571683,2.593544667327404,-4.557745137423277,-0.5912609696388245,1.047646403312683,-0.2948500514030456,jumping
1783088031562562300,4.645562255859375,1.1600260679200292,3.814050630651414,-3.199807848700881,-0.790936291217804,1.0036360025405884,-0.1240404918789863,jumping
1783088031572606200,4.655606201171875,1.4833853308603169,4.314994950202107,-2.073770851883292,-0.7170477509498596,0.855283796787262,0.0681973099708557,jumping
1783088031582650000,4.665650146484375,1.635735116188228,3.4900606685921547,-0.1252753159195184,-0.4006733000278473,0.6776368021965027,0.1273645013570785,jumping
1783088031592695300,4.6756953125,1.1629489696294069,2.146665115441382,2.6239707852512595,-0.0291539020836353,0.5586831569671631,0.0332818143069744,jumping
1783088031602739500,4.685739501953125,0.6987013727046549,0.6969950071781873,5.129508667823672,0.3269072771072387,0.6320963501930237,-0.2308220118284225,jumping
1783088031612783000,4.695783203125,1.3202739130213856,-0.1704109271973371,7.206004560756683,0.563399612903595,0.9561590552330016,-0.5533517003059387,jumping
1783088031622827300,4.7058271484375,2.148136064776778,-0.0817681826263666,10.003286670821904,0.6816351413726807,1.260683536529541,-0.6641091108322144,jumping
1783088031632872400,4.71587255859375,2.5669968521416187,0.4042869030892849,13.05670042772889,0.7473082542419434,1.327078104019165,-0.5272493958473206,jumping
1783088031642916000,4.725916015625,2.0386834641501306,0.173126615896821,15.54306949945092,0.6841862797737122,1.1256495714187622,-0.3188182115554809,jumping
1783088031652960300,4.735960205078125,0.815510181313008,-0.67238590497002,16.91134990301132,0.3996384739875793,0.7072986960411072,-0.1560857146978378,jumping
1783088031663004200,4.746004150390625,-0.2073607478015124,-1.582724679882079,16.809285366809366,-0.0228390134871006,0.1393774896860122,-0.0861130207777023,jumping
1783088031673049000,4.756049072265625,-0.5729734907120466,-2.01393173860088,14.916435145699976,-0.3551572859287262,-0.4031153321266174,-0.079854592680931,jumping
1783088031683093200,4.76609326171875,-0.2677548646181821,-1.9549847518526016,11.843156996893882,-0.3762335479259491,-0.7571935057640076,-0.1015769317746162,jumping
1783088031693137200,4.77613720703125,0.5549326609782874,-1.6917612470537422,9.045824617946147,-0.1006124094128608,-0.8858576416969299,-0.1791204959154129,jumping
1783088031703181300,4.786181396484375,1.617894777462631,-1.6694861407510937,7.420048293453455,0.350666880607605,-0.7443812489509583,-0.2780883610248565,jumping
1783088031713226200,4.796226318359375,2.5219901279404757,-1.69755166702345,7.160040097439289,0.7007484436035156,-0.3686763644218445,-0.3120828866958618,jumping
1783088031723270100,4.806270263671875,3.1589018378168343,-1.2874072700776158,7.524837870705127,0.8077608942985535,0.1941294819116592,-0.2297627180814743,jumping
1783088031733314300,4.816314208984375,3.2835140136525034,-0.723629916125536,8.158033482667804,0.6895118355751038,0.807875394821167,-0.0587418302893638,jumping
1783088031743358500,4.8263583984375,3.0341864938676357,-0.6125450381219387,9.0826892444849,0.4122698605060577,1.3010483980178833,0.1227749660611152,jumping
1783088031753403100,4.836403076171875,2.4474456129573285,-0.998604502864182,9.932837754589318,0.0176936574280262,1.5101268291473389,0.2690339982509613,jumping
1783088031763447300,4.846447265625,1.9153038988493385,-1.809063830528408,10.41217843735814,-0.3631615340709686,1.4239581823349,0.3581750690937042,jumping
1783088031773491500,4.856491455078125,1.4937350215695795,-2.6242396653205153,10.318419957208633,-0.5863800048828125,1.1422877311706543,0.3598448634147644,jumping
1783088031783535400,4.866535400390625,1.0638066044844687,-3.305775237560272,10.063582441830636,-0.6022250056266785,0.7652570605278015,0.288481205701828,jumping
1783088031793580300,4.876580322265625,0.7984804283179342,-3.8176854800224302,10.026675729715825,-0.4610249698162079,0.300748199224472,0.1604237109422683,jumping
1783088031803624200,4.886624267578125,0.862586697525531,-3.885878434021771,9.931877969646454,-0.2509188652038574,-0.1518507152795791,0.0351672507822513,jumping
1783088031813668400,4.89666845703125,1.0229681058786808,-3.6269659242898222,9.620459319868685,-0.0535704493522644,-0.5412431955337524,-0.0590065270662307,jumping
1783088031823712300,4.906712158203125,1.2050526658654213,-3.3841052624315022,9.203944218847155,0.0778392329812049,-0.7188217043876648,-0.1624263972043991,jumping
1783088031833757200,4.916757080078125,1.5372864323958753,-2.621034147277474,9.031537149396538,0.1099497973918914,-0.6735467910766602,-0.2332682162523269,jumping
1783088031843801300,4.92680126953125,2.0611377264119684,-1.664746983399987,9.566145545879008,0.0767252668738365,-0.584566593170166,-0.203899934887886,jumping
1783088031853845200,4.93684521484375,2.88541661285311,-0.8241687040649354,10.701299330610036,-0.0212303418666124,-0.6127951145172119,-0.1374762505292892,jumping
1783088031863889200,4.94688916015625,3.684485800844431,0.1526731720633804,11.34482987410426,-0.1880592852830886,-0.7746279239654541,-0.0003237179480493,jumping
1783088031873934300,4.956934326171875,3.9917461618989702,0.6714071230657398,11.056790346348285,-0.3187836408615112,-1.0309288501739502,0.2117281854152679,jumping
1783088031883978200,4.966978271484375,3.5543951935976743,0.4210251257918775,10.58491517715454,-0.3090572357177734,-1.40600848197937,0.4034640789031982,jumping
1783088031894022100,4.977022216796875,2.4540014643415806,0.0562397736161947,8.341074758857488,-0.1952452361583709,-1.5616024732589722,0.6284159421920776,jumping
1783088031904066300,4.98706640625,0.7184983984559774,-0.7632692680746317,8.210435285556317,0.1156111881136894,-1.7103163003921509,0.8381422758102417,jumping
1783088031914111500,4.997111572265625,0.3059394877143204,-0.8148936568498611,8.221078260123729,0.293734461069107,-2.0149052143096924,0.8572132587432861,jumping
1783088031924155100,5.007155029296875,2.3346093612417578,-0.2667301977455615,8.009979348707198,0.300159603357315,-2.530517816543579,0.813071072101593,jumping
1783088031934199300,5.01719921875,4.154074320405721,0.5497226712450385,6.940622855010628,0.1769899129867553,-3.0712759494781494,0.8031983971595764,jumping
1783088031944243200,5.0272431640625,2.5751599925920368,1.6726947275340556,4.237279842358827,0.1528187990188598,-3.3834779262542725,0.9658797383308412,jumping
1783088031954288000,5.0372880859375,-0.077843410398066,1.67927001427114,2.108382146537304,0.3474536538124084,-3.397902488708496,1.0875378847122192,jumping
1783088031964332300,5.047332275390625,-3.5743446334317324,2.107578428938985,0.0394628263384103,0.5577030181884766,-3.0682661533355713,1.1575603485107422,jumping
1783088031974376200,5.057376220703125,-6.669229341629147,3.382072295299172,-4.235346828469634,0.472584068775177,-2.2110533714294434,1.048056721687317,jumping
1783088031984420400,5.06742041015625,-6.482251895034313,5.2502749818861485,-11.047012464177609,-0.2728738784790039,-0.8286547660827637,1.0118364095687866,jumping
1783088031994465300,5.07746533203125,-8.06501091557741,7.653553682467341,-24.01480126726627,-1.6190588474273682,2.176287889480591,1.397180199623108,jumping
1783088032004509200,5.08750927734375,-8.11061355984509,-0.8782116982892155,-33.6564267092824,-2.57995080947876,5.221953392028809,0.6010845899581909,jumping
1783088032014553300,5.09755322265625,-8.008197725987435,-5.735230581927299,-27.53425432682037,-1.4438036680221558,5.552373886108398,-0.3955546617507934,jumping
1783088032024597200,5.10759716796875,-5.453205199894309,-0.5026698281690478,-17.005406489324567,0.8087054491043091,3.454610586166382,-0.5578175783157349,jumping
1783088032034642200,5.11764208984375,-6.686598409581184,2.34049841928035,-13.92577809470892,1.700375199317932,1.3743336200714111,-0.8540380597114563,jumping
1783088032044686300,5.127686279296875,-8.73484845123887,3.164799663683772,-12.80587857773304,1.2761355638504028,0.0775536969304084,-1.1166077852249146,jumping
1783088032054730200,5.137730224609375,-7.807201690912247,2.5479846931576726,-12.438264578002691,0.4497799277305603,-0.7601062059402466,-1.2313766479492188,jumping
1783088032064774400,5.1477744140625,-6.473245581758022,0.3965750135377049,-14.278424826931952,-0.1367514580488205,-1.420765042304993,-1.5087342262268066,jumping
1783088032074819300,5.1578193359375,-6.420042399358749,-1.3575313382700085,-15.77914152408242,-0.3713336884975433,-1.8994982242584229,-1.780806541442871,jumping
1783088032084863200,5.16786328125,-7.581293332898617,-2.8557313764244316,-17.156851434767244,-0.1735572516918182,-1.932199239730835,-2.124232530593872,jumping
1783088032094907400,5.177907470703125,-8.407152620398998,-0.7383379481747746,-18.81011431660056,0.0528798960149288,-1.154853343963623,-2.049294948577881,jumping
1783088032104951300,5.187951416015625,-7.508310514274239,2.804338750578463,-18.703312815004587,0.0497064739465713,-0.2914839684963226,-1.510543942451477,jumping
1783088032114996200,5.197996337890625,-4.417345609869063,5.651577900728583,-16.589819609063863,-0.1096487715840339,0.3125849366188049,-0.8684539794921875,jumping
1783088032125040400,5.208040283203125,-2.3954238954275846,6.536003358966112,-15.17413448024988,-0.3134562373161316,0.8294098973274231,-0.2196554690599441,jumping
1783088032135084300,5.218084228515625,-3.517603340034187,4.684476497370005,-13.877856652104851,-0.3878532946109772,1.248595118522644,0.2675005793571472,jumping
1783088032145128200,5.228128173828125,-4.665280213990807,2.047383195695281,-11.865139696121217,-0.3470347821712494,1.4523732662200928,0.3576568365097046,jumping
1783088032155173400,5.23817333984375,-4.979183081799746,1.07235976716578,-11.241833610010149,-0.3664065599441528,1.5962600708007812,0.2057141810655594,jumping
1783088032165217300,5.24821728515625,-4.300709819740057,1.5731906894698735,-11.367671820509432,-0.4797499179840088,1.6754398345947266,0.0689598023891449,jumping
1783088032175261200,5.25826123046875,-2.526385732550919,1.9707187659487129,-10.953797589385507,-0.515442967414856,1.6334116458892822,-0.0584895797073841,jumping
1783088032185305300,5.268305419921875,-0.4309828945741057,2.4864324923470615,-9.076039138945935,-0.3501062393188476,1.4115569591522217,-0.1307912021875381,jumping
1783088032195350300,5.278350341796875,1.275930621165037,3.458491225852072,-5.593436092883348,-0.0555639415979385,1.1071350574493408,-0.0850187540054321,jumping
1783088032205394200,5.288394287109375,2.4329336880020795,3.975832553452253,-1.427937876665592,0.2787341475486755,0.8880666494369507,-0.0024596937000751,jumping
1783088032215438300,5.298438232421875,3.623717736148834,3.891269187149405,2.494637133851647,0.5566462278366089,0.7882569432258606,0.1084589213132858,jumping
1783088032225482200,5.308482177734375,4.688339310277998,3.2484850781083106,6.336632879266142,0.7154632806777954,0.6409851908683777,0.2215937376022339,jumping
1783088032235527200,5.318527099609375,5.143763987669349,2.3605934050649404,9.83910031722784,0.7018831372261047,0.3057865798473358,0.326214462518692,jumping
1783088032245571300,5.3285712890625,4.467456963732839,1.5206851339459415,11.994928105551004,0.5509026646614075,-0.0631299242377281,0.4541250169277191,jumping
1783088032255615200,5.338615234375,3.1665970684945584,0.6599499095059931,13.701625640451908,0.3510929048061371,-0.3873513042926788,0.5639252662658691,jumping
1783088032265660200,5.34866015625,1.65897409908697,-0.1337244337044656,14.600260241305827,0.1068615838885307,-0.652472972869873,0.6088112592697144,jumping
1783088032275704300,5.358704345703125,0.1371533852398395,-0.7987523771271109,15.740293030250072,-0.0661141946911811,-0.9831444025039672,0.6084892749786377,jumping
1783088032285748200,5.368748291015625,-1.1490336953930556,-1.4940084316834807,16.325282537448405,-0.2044329196214676,-1.3720133304595947,0.4735122919082641,jumping
1783088032295792400,5.37879248046875,-1.0744102699548006,-2.3927432780414817,15.549053834557531,-0.3095645308494568,-1.562525987625122,0.2382479608058929,jumping
1783088032305837000,5.388837158203125,0.3854600375443697,-2.107464447170496,13.817671940255163,-0.3185572326183319,-1.3205444812774658,0.0901240110397338,jumping
1783088032315881200,5.398881103515625,2.4199898891463874,-1.1127905617535114,13.089551726973056,-0.3573038280010223,-1.0194092988967896,0.0611158460378646,jumping
1783088032325925400,5.40892529296875,3.4386092982962726,-1.1258081564977764,12.382337523597478,-0.4396296143531799,-0.7776728868484497,0.122126467525959,jumping
1783088032335969300,5.41896923828125,3.1543548420369625,-1.754265634022653,10.681197622823715,-0.3740988373756408,-0.4076129794120788,0.2114549279212951,jumping
1783088032346014200,5.42901416015625,2.6932404285714027,-1.872734192536771,8.876393933957814,-0.2777438163757324,0.1104072704911232,0.2572149932384491,jumping
1783088032356058400,5.439058349609375,2.6319395721733567,-1.9613515104055403,7.297085930651426,-0.2443160861730575,0.7452250719070435,0.2808477878570556,jumping
1783088032366102300,5.449102294921875,2.6031018924847245,-2.1058958826795218,6.106369248652458,-0.2906417548656463,1.4116441011428833,0.3062402307987213,jumping
1783088032376146400,5.459146484375,2.381697860153019,-2.413377193008363,5.585478996399044,-0.3878941833972931,1.964405536651611,0.2996837198734283,jumping
1783088032386191400,5.46919140625,2.131548794852197,-2.9788819552749395,5.612262373906374,-0.4749180376529693,2.2927708625793457,0.2400702089071273,jumping
1783088032396234800,5.47923486328125,1.714332267563045,-3.659498366843163,5.815365610393881,-0.4950237274169922,2.3929779529571533,0.1481994837522506,jumping
1783088032406278700,5.489278564453125,1.2900105844438077,-4.527131972494721,6.385096173661947,-0.4199857115745544,2.2695486545562744,0.0077321254648268,jumping
1783088032416322800,5.49932275390625,1.1923738015562295,-5.173738270172477,7.219704000285267,-0.238152876496315,1.9163644313812256,-0.1390409469604492,jumping
1783088032426367700,5.50936767578125,0.7499415844678878,-5.221087465846538,7.671559294757246,-0.047404509037733,1.5850642919540403,-0.2584397494792938,jumping
1783088032436411600,5.51941162109375,0.3098189594961703,-5.072400294679403,8.405424189171194,0.0707224532961845,1.3264997005462646,-0.38217893242836,jumping
1783088032446455800,5.529455810546875,0.1521047245256602,-4.704078731201589,9.25001974132359,0.097262717783451,1.1212416887283323,-0.4860238432884216,jumping
1783088032456499500,5.53949951171875,0.3542536559630185,-3.9407027878820897,9.932897375822067,0.0086063398048281,0.9463598132133484,-0.5407784581184387,jumping
1783088032466544600,5.549544677734375,0.8757081910356879,-3.3875863825455306,10.33552540578842,-0.0940736979246139,0.7265473008155823,-0.5083286762237549,jumping
1783088032476588800,5.5595888671875,1.3550550112843514,-3.1027082414299247,10.224218409466744,-0.1101913675665855,0.466827243566513,-0.4522158205509186,jumping
1783088032486632700,5.5696328125,1.645721234282106,-2.860374233794212,9.898924963593482,-0.0272554773837327,0.1814082711935043,-0.4012351930141449,jumping
1783088032496676600,5.579676513671875,1.6949164962142704,-2.5762343438252806,9.54458019528091,0.1219985112547874,-0.0708922147750854,-0.3383224308490753,jumping
1783088032506721800,5.5897216796875,1.4847875988736747,-2.212857251012325,9.54316039161086,0.2167761474847793,-0.3109658062458038,-0.2369612008333206,jumping
1783088032516765700,5.599765625,1.5636030691742897,-2.065653011879325,9.921559989249706,0.2095590978860855,-0.6885799765586853,-0.1150746420025825,jumping
1783088032526809600,5.6098095703125,1.5678439216144382,-1.7376590748757124,9.850690217256544,0.1644526124000549,-1.163522243499756,0.0086196037009358,jumping
1783088032536853500,5.619853515625,0.9378216789908708,-1.2078607090234756,8.99811535678804,0.1600424647331237,-1.6423115730285645,0.1059566065669059,jumping
1783088032546898700,5.629898681640625,0.2688976049125194,-0.6781035519644618,8.192951066792011,0.279383510351181,-2.1630702018737793,0.1528476774692535,jumping
1783088032556942600,5.639942626953125,0.2346115966901183,-0.3650315820217132,7.811800124618411,0.5033600926399231,-2.706138610839844,0.1394748240709304,jumping
1783088032566986500,5.649986572265625,0.8232185637332499,0.1265969199120998,7.105398991191387,0.6445238590240479,-3.1731178760528564,0.1421374529600143,jumping
1783088032577030700,5.66003076171875,0.7655361900933086,0.9560817044332623,5.800601171982288,0.6293537020683289,-3.44808030128479,0.3097796440124511,jumping
1783088032587075600,5.67007568359375,0.1753299711599946,1.5591566111594437,4.555551426771283,0.5114459991455078,-3.669222831726074,0.5522013902664185,jumping
1783088032597119500,5.680119384765625,-1.0306640672087668,2.718222309614718,2.083188084048033,0.2282125502824783,-3.734575033187866,0.8795357346534729,jumping
1783088032607163600,5.69016357421875,-2.169005249804258,4.305640846401452,-1.7393033349514009,-0.1256328672170639,-3.38885760307312,1.2719323635101318,jumping
1783088032617207800,5.700207763671875,-2.4613909900709987,5.895499469816684,-7.19739338427782,-0.5833877921104431,-2.4767959117889404,1.6681934595108032,jumping
1783088032627252500,5.71025244140625,-2.8055031181827186,6.542048484349251,-14.554924723541736,-1.0933966636657717,-0.759099543094635,1.9762786626815796,jumping
1783088032637296600,5.720296630859375,-6.293681626290082,4.020722665536403,-23.289386221289632,-1.5562255382537842,1.909435510635376,1.85825514793396,jumping
1783088032647340500,5.730340576171875,-12.310206353366372,-3.677802962079644,-29.211703555405137,-1.990294933319092,4.581250190734863,0.8725345730781555,jumping
1783088032657384700,5.740384765625,-12.510837646782395,-4.958854579520225,-27.790793969941134,-1.7204911708831787,5.456367015838623,-0.1303168684244156,jumping
1783088032667429600,5.7504296875,-7.837102323657274,0.181759711946547,-23.498060535907744,-0.5241051912307739,4.192683696746826,-0.2771518528461456,jumping
1783088032677473500,5.7604736328125,-6.284103650605678,2.9525962981566787,-24.486805031275747,0.399770975112915,2.7952301502227783,-0.3974353373050689,jumping
1783088032687517700,5.770517578125,-7.6327259984940286,2.482813425067067,-26.49772633601427,0.6272672414779663,2.1172587871551514,-0.7637494206428528,jumping
1783088032697561900,5.780561767578125,-6.438145626804232,1.1427128218084572,-23.86920855498314,0.3577627837657928,1.504841923713684,-1.0871107578277588,jumping
1783088032707606500,5.7906064453125,-4.65264928047657,0.4443728297621011,-20.388549044203756,0.1318646669387817,0.7503766417503357,-1.3118892908096311,jumping
1783088032717650700,5.800650634765625,-5.215794620135426,0.6563280657470226,-18.652547088885303,0.0608042553067207,-0.0822071954607963,-1.45022451877594,jumping
1783088032727694800,5.81069482421875,-5.783745314249396,0.7514952436506748,-18.77404814696312,0.0510536208748817,-0.527359127998352,-1.5154389142990112,jumping
1783088032737738500,5.820738525390625,-4.584104736560583,1.4142998119354246,-19.082438388830425,-0.1020698770880699,-0.6454311013221741,-1.5194158554077148,jumping
1783088032747783700,5.83078369140625,-2.2797005439683793,2.133069136287272,-19.58582630214095,-0.2219171673059463,-0.3595578074455261,-1.4280492067337036,jumping
1783088032757827800,5.840827880859375,-0.139976041445136,3.587514203867316,-19.29960346841812,-0.0857719182968139,0.130243107676506,-1.1135441064834597,jumping
1783088032767871700,5.850871826171875,1.263419076246768,5.223464716371893,-16.709327447497845,0.3012018799781799,0.5846415162086487,-0.6236550211906433,jumping
1783088032777915600,5.86091552734375,1.6184833910055458,5.3181192685782905,-12.453154688620566,0.7390978932380676,0.875876247882843,-0.2004053741693496,jumping
1783088032787960600,5.870960693359375,1.8149264389514923,4.666171609872579,-7.921960873514413,1.0331484079360962,0.989064633846283,0.026067966595292,jumping
1783088032798004700,5.881004638671875,1.729389405310899,4.351579298494756,-3.287654474458098,1.122239351272583,0.8710808157920837,0.1829238533973693,jumping
1783088032808048600,5.891048583984375,2.223435928171873,3.867347044292092,1.0915665719389915,1.0290247201919556,0.5293301343917847,0.2925531566143036,jumping
1783088032818092500,5.901092529296875,3.6622435738980768,3.1631048424646258,4.454854671791195,0.7918907999992371,0.0047884276136755,0.3926292657852173,jumping
1783088032828137700,5.9111376953125,4.734102990326285,3.3329625196933743,6.228845289242267,0.5172232985496521,-0.4626227021217346,0.5812340378761292,jumping
1783088032838181600,5.921181640625,4.790937222704291,4.2382872658357025,7.433511001616716,0.2879864275455475,-0.7722223401069641,0.8335890769958496,jumping
1783088032848225500,5.9312255859375,4.293051413941383,4.867956457237899,9.457250871396065,0.1909035444259643,-1.1438555717468262,1.1163110733032229,jumping
1783088032858269700,5.941269775390625,3.303051073293388,5.257033808496594,11.923515897244217,0.2419118136167526,-1.6364473104476929,1.394192099571228,jumping
1783088032868314600,5.951314697265625,1.4017445740059018,4.47810344543159,14.859113422065972,0.3766571283340454,-2.397568464279175,1.5580638647079468,jumping
1783088032878358500,5.961358642578125,-1.9990048031039536,2.6481916187942027,18.173393453121182,0.4994556009769439,-3.2848360538482666,1.443682312965393,jumping
1783088032888402700,5.971402587890625,-3.4631121636509894,-0.1160036297053098,20.050246479153632,0.3739069998264313,-3.986671924591065,0.9233939051628112,jumping
1783088032898446600,5.981446533203125,-0.8391001696065068,-1.7089952904492616,19.191949733906984,-0.006860177963972,-4.162248134613037,0.4807457327842712,jumping
1783088032908491500,5.991491455078125,3.0656697196289895,-1.0155550531432032,16.789032852375506,-0.4982650578022003,-3.829033136367798,0.3452560901641845,jumping
1783088032918535700,6.00153564453125,5.031654442793131,-0.5621653887107968,14.417569093728064,-0.9042146801948548,-3.245569944381714,0.3358168601989746,jumping
1783088032928579600,6.01157958984375,5.015680628591776,-1.4843904162496326,12.354529479217527,-1.158703088760376,-2.5013301372528076,0.2671661376953125,jumping
1783088032938623700,6.021623779296875,4.401714617756009,-2.4752611099913713,10.341669899892809,-1.2927958965301514,-1.6412408351898191,0.1578405201435089,jumping
1783088032948668700,6.031668701171875,3.907768194268644,-2.558395320273936,7.899676560992002,-1.376075029373169,-0.6397871375083923,0.0681178197264671,jumping
1783088032958712600,6.041712646484375,3.092418902605772,-2.70070535762459,5.508095896989107,-1.359124779701233,0.3819971978664398,0.0195633322000503,jumping
1783088032968756700,6.0517568359375,2.018152717296779,-3.437248531337082,3.409161377754807,-1.1645058393478394,1.4129904508590698,-0.0741751492023468,jumping
1783088032978800600,6.061800537109375,1.2856257934883235,-4.577413422228395,2.0296254206866027,-0.8530203104019165,2.372020483016968,-0.2398521453142166,jumping
1783088032988845600,6.071845458984375,1.4620643104121087,-5.580494778245687,1.9858207657516,-0.5451841950416565,3.11236834526062,-0.3920392692089081,jumping
1783088032998889700,6.0818896484375,2.28017546800375,-6.0283759083896875,3.3829742125749585,-0.2870700657367706,3.47524094581604,-0.5179266929626465,jumping
1783088033008933600,6.09193359375,2.5871581811606883,-5.956134263521433,4.898499771800637,-0.1789984703063964,3.527176856994629,-0.728969156742096,jumping
1783088033018977500,6.1019775390625,2.3306129850819706,-5.36979977145493,6.576870206883549,-0.1841951012611389,3.323887586593628,-0.9342796802520752,jumping
1783088033029022700,6.112022705078125,1.7454712099313734,-4.7384307903975245,7.930996412885189,-0.1885312497615814,3.000481367111206,-1.025182604789734,jumping
1783088033039066600,6.122066650390625,1.1263589222483337,-4.590617187194526,8.704351606166362,-0.2314764410257339,2.6531450748443604,-1.079879641532898,jumping
1783088033049110500,6.132110595703125,0.6809338069543242,-4.607253849218785,9.38400034174621,-0.3674324154853821,2.2718241214752197,-1.1545312404632568,jumping
1783088033059154700,6.14215478515625,0.6302296017639338,-4.8518636928319925,9.474318326053025,-0.5634802579879761,1.9006179571151731,-1.2250170707702637,jumping
1783088033069199600,6.15219970703125,0.9642885378949344,-5.091030176347494,9.165653358897568,-0.6706680059432983,1.618818283081055,-1.2511847019195557,jumping
1783088033079243800,6.162243896484375,1.460490923615545,-4.7618859002649785,8.887755870449542,-0.6142659783363342,1.395889401435852,-1.2010849714279177,jumping
1783088033089287700,6.17228759765625,1.8981839833527805,-4.12235290197432,8.721602016174792,-0.3955700993537903,1.1707159280776978,-1.0706409215927124,jumping
1783088033099331600,6.18233154296875,2.2603522848978637,-3.760381876567006,8.581461724078654,-0.0754086226224899,0.9675782322883606,-0.9200090765953064,jumping
1783088033109376800,6.192376708984375,2.606608731561899,-3.3803953019976616,8.652859903860092,0.2220952212810516,0.7362203598022461,-0.735853374004364,jumping
1783088033119420400,6.20242041015625,2.89401317628473,-2.8679592820957303,9.072959877631067,0.3954027593135834,0.4327584207057953,-0.5331647992134094,jumping
1783088033129464600,6.212464599609375,3.0821038448184725,-2.4842285525619983,9.668459672927856,0.4179496169090271,0.0252383053302764,-0.3486931920051574,jumping
1783088033139508700,6.2225087890625,3.028915275466442,-2.0378511049792167,10.086476995205878,0.3226245641708374,-0.4260640144348144,-0.1639232486486435,jumping
1783088033149553700,6.2325537109375,2.8859815532594917,-1.8797066618978977,10.572339773219824,0.1605472713708877,-1.0564638376235962,-0.019289631396532,jumping
1783088033159597600,6.24259765625,1.6420086434997618,-1.0423194336891173,10.113640896463394,-0.0518431141972541,-1.7641416788101196,0.2124482095241546,jumping
1783088033169641700,6.252641845703125,-0.4830503509417176,0.7126628241702914,8.511380472114682,-0.2055804878473281,-2.3889105319976807,0.6193400621414185,jumping
1783088033179686700,6.262686767578125,-1.059126629974693,1.2259998845651745,7.371479200595616,-0.2557540237903595,-3.133233547210694,0.9230673313140868,jumping
1783088033189730600,6.27273046875,-0.5390399491891265,1.212214812579751,4.805742577648163,-0.2571639120578766,-3.777883291244507,1.1087305545806885,jumping
1783088033199774700,6.282774658203125,0.7667135633096098,2.2632845389574765,0.978497826641798,-0.1083463281393051,-3.926964282989502,1.301250696182251,jumping
1783088033209818600,6.292818603515625,3.284849938431382,2.673998260223865,-2.4655425567924976,0.016242204234004,-3.5617122650146484,1.4022194147109983,jumping
1783088033219862800,6.30286279296875,3.2089094390451907,3.019259558370709,-5.1872366341710086,-0.0457936637103557,-2.8853652477264404,1.5665061473846436,jumping
1783088033229907700,6.31290771484375,-2.5630498680815097,4.343893420167267,-10.447989755451678,-0.2335979044437408,-1.321952223777771,1.7690198421478271,jumping
1783088033239951600,6.32295166015625,-6.449464893198013,1.6652800673633812,-15.9126767188251,-0.6108541488647461,0.8864871263504028,1.3563152551651,jumping
1783088033249995800,6.332995849609375,-6.391439405208826,-1.9345508895024657,-21.269320656108857,-1.206273078918457,3.300769329071045,0.6169624924659729,jumping
1783088033260039700,6.343039794921875,-2.301357664503157,-1.414761584228277,-16.80381190383434,-0.9491428732872008,3.8259334564208984,-0.1556309014558792,jumping
1783088033270084600,6.353084716796875,-2.8153987815141677,2.347503037345409,-12.143199097132682,0.1150842159986496,2.927506923675537,-0.7627719640731812,jumping
1783088033280128800,6.363128662109375,-6.43044688899517,4.709520337733626,-11.156226872134209,1.2025619745254517,1.7164760828018188,-1.211238145828247,jumping
1783088033290172700,6.373172607421875,-7.793675854384898,4.802000176249444,-9.949252298295498,1.3486087322235107,0.49498450756073,-1.5353598594665527,jumping
1783088033300216600,6.383216552734375,-7.723280129644274,3.997912867835163,-10.399337660485504,0.7370375990867615,-0.4931031167507171,-1.733279585838318,jumping
1783088033310261800,6.39326171875,-7.265595398366451,1.8944684699609875,-13.05852764315605,0.0732617452740669,-1.2397956848144531,-1.9807459115982056,jumping
1783088033320305700,6.4033056640625,-5.9797056932449335,0.8268938912451267,-14.621560218966009,-0.1179059073328971,-2.065025568008423,-2.1449339389801025,jumping
1783088033330349600,6.413349609375,-4.754622631263732,0.5877376368626952,-15.865487097626923,0.1114868000149726,-2.756209373474121,-2.0786242485046387,jumping
1783088033340393500,6.4233935546875,-4.9813504889667035,0.0717287269100546,-17.002486217963696,0.3919554054737091,-2.999405860900879,-1.901680827140808,jumping
1783088033350438700,6.433438720703125,-5.601186268618703,0.178316878016293,-16.86465244924426,0.4909496307373047,-2.842989683151245,-1.657498836517334,jumping
1783088033360482800,6.44348291015625,-5.542337189286947,2.5682149957597256,-17.343854015803338,0.4348004460334778,-2.2214672565460205,-1.2344393730163574,jumping
1783088033370526500,6.4535263671875,-5.215443907001614,6.083886783209443,-17.926117312908172,0.2748968005180359,-1.2158575057983398,-0.5946286916732788,jumping
1783088033380570600,6.463570556640625,-5.081773687702417,8.823258556097745,-17.601905232530832,0.0792853832244873,0.0110849272459745,0.0775799080729484,jumping
1783088033390615800,6.47361572265625,-4.6930546483621,10.416339064168929,-16.65275274283886,0.0210604332387447,1.1721129417419434,0.6468625068664551,jumping
1783088033400660000,6.483659912109375,-4.861795596520603,10.077053333300352,-15.55198345826864,0.0855824947357177,2.153754234313965,1.091325044631958,jumping
1783088033410704100,6.4937041015625,-5.35508501740396,8.276329022702575,-13.561001364231108,0.0419018529355526,2.7634828090667725,1.302936315536499,jumping
1783088033420748300,6.503748291015625,-5.30329345536828,6.276051277053356,-11.736395242786406,-0.1653392761945724,3.114567995071411,1.1775057315826416,jumping
1783088033430793000,6.51379296875,-4.132555439297855,4.8535374712631105,-10.358713389152287,-0.2939997911453247,3.394230842590332,0.8338854312896729,jumping
1783088033440837000,6.523837158203125,-1.98334969946295,3.6061391170993446,-7.927509155291318,-0.2470783144235611,3.227855920791626,0.3712235689163208,jumping
1783088033450881300,6.53388134765625,0.1590289708308875,3.395292134617269,-4.707230180969834,-0.0942853167653083,2.725698947906494,0.006769988220185,jumping
1783088033460925200,6.54392529296875,1.9107482813715937,3.3693919696852563,-1.5662959615200758,0.0442190691828727,1.94363272190094,-0.2099290043115615,jumping
1783088033470970000,6.55397021484375,2.8619907290801403,3.3098061005115507,0.3343623029917478,0.3065766394138336,1.330703854560852,-0.3215490281581878,jumping
1783088033481014300,6.56401416015625,3.2973014237254854,2.8502313177034257,2.4301485873281954,0.6672685146331787,0.9280982613563538,-0.3322280645370483,jumping
1783088033491058200,6.57405810546875,3.115692226165533,1.7429373075395822,5.0737680759012695,1.0737667083740234,0.634661078453064,-0.2476945221424102,jumping
1783088033501103000,6.58410302734375,2.0222472931340336,0.6820391378477215,8.354490120747686,1.4183571338653564,0.3096494972705841,-0.0858747959136962,jumping
1783088033511147300,6.594147216796875,1.2656861443959175,-0.3326321181982755,11.60332298938036,1.5538113117218018,-0.197230190038681,0.0629783272743225,jumping
1783088033521191200,6.604191162109375,0.8164937855228781,-1.5812909938171504,14.854700281798838,1.4187613725662231,-1.0049933195114136,0.1329736411571502,jumping
1783088033531235300,6.6142353515625,0.448056486710906,-1.81508922829777,16.626159334945676,1.095239520072937,-1.8774549961090088,0.1915131211280822,jumping
1783088033541280000,6.624280029296875,0.0623923048965632,-1.5596657297253609,16.829140406358242,0.6470375061035156,-2.5712649822235107,0.239624798297882,jumping
1783088033551324200,6.63432421875,0.2296022440955042,-1.9399127087965609,16.087737517654894,0.2134530991315841,-3.02058744430542,0.2509728074073791,jumping
1783088033561368300,6.644368408203125,0.988059727974236,-2.7538737609714268,14.425256725621225,-0.0469718761742115,-3.1429429054260254,0.1742872893810272,jumping
1783088033571412000,6.654411865234375,1.9790911652356384,-2.977138326478004,12.51051849783063,-0.105399765074253,-2.9341583251953125,0.0399225689470768,jumping
1783088033581457200,6.66445703125,2.988630611351132,-2.6650381241768595,11.352298894810676,-0.0462845191359519,-2.459599256515503,0.0057800216600298,jumping
1783088033591501300,6.674501220703125,4.035833140906691,-2.2983090905874968,10.561765772235391,0.0252519808709621,-1.8602675199508667,0.0918344780802726,jumping
1783088033601545200,6.684545166015625,4.910687637722492,-2.083972512423992,9.975097518169878,0.0177777707576751,-1.3126275539398191,0.2399256080389022,jumping
1783088033611589000,6.694589111328125,5.159084306398034,-1.684253355641663,8.668054550382495,-0.0498289689421653,-0.7846723198890686,0.424131691455841,jumping
1783088033621634300,6.70463427734375,4.661060258208215,-1.1477876408547163,6.5239446723818775,-0.0667316690087318,-0.2189957499504089,0.5971153378486633,jumping
1783088033631678200,6.71467822265625,3.561995147207379,-0.9134154058784246,4.4979315969735385,0.0926238968968391,0.489298552274704,0.6880058646202087,jumping
1783088033641722000,6.72472216796875,2.1268381329432127,-1.3621286029323936,3.881112534794211,0.3559427559375763,1.2641050815582275,0.6518202424049377,jumping
1783088033651766000,6.73476611328125,1.299560503077507,-2.339071601347625,5.080376680386066,0.5257543921470642,1.881071925163269,0.4239676594734192,jumping
1783088033661811200,6.744811279296875,1.4395076106891036,-3.03490545579195,7.2067322905093425,0.4382230639457702,2.2118804454803467,0.1259579062461853,jumping
1783088033671855000,6.754855224609375,2.030415694281458,-3.3690579154253,9.498014843460917,0.1411338597536087,2.1649203300476074,-0.1193645149469375,jumping
1783088033681899000,6.76489892578125,2.426085575672984,-3.871767491082847,11.01334634141922,-0.2145847231149673,1.7618743181228638,-0.3315623998641968,jumping
1783088033691943200,6.774943115234375,2.687725172281265,-4.3028824876040215,11.070755743336678,-0.4340209662914276,1.2185564041137695,-0.5251960754394531,jumping
1783088033701988000,6.784988037109375,2.987631663441658,-3.92610873760134,10.227188949710133,-0.4941575825214386,0.7167245149612427,-0.628587543964386,jumping
1783088033712032000,6.795031982421875,3.0861008055001498,-3.4037972203731535,9.1116335994184,-0.4488833248615265,0.323636382818222,-0.6870348453521729,jumping
1783088033722076200,6.805076171875,3.241326146264374,-2.9604797448828815,8.039898101630806,-0.2834752202033996,0.0475150980055332,-0.7098923921585083,jumping
1783088033732120000,6.8151201171875,3.391052889612317,-2.6434458855718375,7.589113066738843,-0.0456853136420249,-0.1760388910770416,-0.6920081973075867,jumping
1783088033742165000,6.8251650390625,3.5414839818373323,-2.2975316764742133,7.88768801703453,0.1916709989309311,-0.3721106052398681,-0.6322550773620605,jumping
1783088033752209200,6.835209228515625,3.5192192507982254,-2.273101291833818,8.839059936341643,0.3618611097335815,-0.57827228307724,-0.560032308101654,jumping
1783088033762253000,6.845253173828125,3.4118417028799652,-2.3220675673156976,9.920590851956606,0.4586852490901947,-0.7477492094039917,-0.4957320094108581,jumping
1783088033772297200,6.855297119140625,3.353265595270693,-2.156031201940775,10.65020977936387,0.504270076751709,-0.8053637742996216,-0.4490960836410522,jumping
1783088033782342100,6.865342041015625,3.357402256684005,-1.7829291261881588,10.857496439015865,0.5221397876739502,-0.6564006805419922,-0.4208263754844665,jumping
1783088033792386000,6.875385986328125,3.588478664985299,-1.4223619762293993,11.210571041262147,0.4664062261581421,-0.3859337866306305,-0.4227640628814697,jumping
1783088033802430200,6.88543017578125,3.678802494511008,-1.0189927725069223,11.768464451742172,0.2233726680278778,-0.1882233917713165,-0.402215301990509,jumping
1783088033812474400,6.895474365234375,2.6896625700846313,-0.3029343145489692,11.72620819529295,-0.1035559251904487,-0.1120777428150177,-0.2447274178266525,jumping
1783088033822519000,6.90551904296875,1.602131537272036,0.1462003227874636,10.995242529451849,-0.2734491229057312,-0.3339426517486572,-0.0514644533395767,jumping
1783088033832563200,6.915563232421875,1.958201814202964,0.5586021432712673,9.533750173708796,-0.2875929176807403,-0.8389695882797241,0.1577947586774826,jumping
1783088033842607400,6.925607421875,2.638573603360354,1.0848594755157828,6.682575729936361,-0.1713663339614868,-1.5147817134857178,0.4373625814914703,jumping
1783088033852651000,6.935651123046875,2.62301801457107,1.8636960228174924,2.5451667131274935,0.0951015800237655,-2.124913215637207,0.7272312045097351,jumping
1783088033862696200,6.9456962890625,1.9456705416709184,3.474336152976751,-1.4432429978251455,0.5332694053649902,-2.391587734222412,1.0448938608169556,jumping
1783088033872740000,6.955739990234375,1.2538763180062171,4.884550156903266,-4.649580540555715,0.7591113448143005,-2.181244373321533,1.2869709730148315,jumping
1783088033882784300,6.9657841796875,-1.6871952543124555,6.42865708296895,-8.519419986185431,0.3999391198158264,-1.3974512815475464,1.6210730075836182,jumping
1783088033892828200,6.975828125,-6.914457901662588,7.342739428323507,-15.265868176573514,-0.599829912185669,0.5382883548736572,1.8201615810394287,jumping
1783088033902873000,6.985873046875,-12.214730547904969,4.9769922937572,-25.30081956720352,-1.8454779386520384,3.7110657691955566,1.2579344511032104,jumping
1783088033912917200,6.995917236328125,-13.09107265293002,0.9370265830904244,-29.02037317429781,-2.1871981620788574,6.030182361602783,0.2778921723365783,jumping
1783088033922961200,7.005961181640625,-7.864274408221244,1.679649368977547,-23.406377108466625,-1.245838642120361,6.128577709197998,-0.2046478539705276,jumping
1783088033933005000,7.016005126953125,-3.5850513208851216,5.76072275058031,-18.222219735610484,-0.0956457927823066,4.768072128295898,-0.1785656511783599,jumping
1783088033943050200,7.02605029296875,-4.502098069003224,4.625874670797586,-17.517506116878984,0.3803547918796539,3.473977565765381,-0.5455579161643982,jumping
1783088033953094100,7.03609423828125,-6.246835703963041,2.322616725631058,-19.013854097425934,-0.0607823766767978,2.4785993099212646,-1.188762664794922,jumping
1783088033963138000,7.046137939453125,-4.976477914494276,0.90907825345695,-20.79392198896408,-0.7464358806610107,1.4123636484146118,-1.7379045486450195,jumping
1783088033973182200,7.05618212890625,-3.0752669845357534,0.5666311359480023,-21.854116102039814,-0.9460715055465698,-0.1366961747407913,-2.052088975906372,jumping
1783088033983227100,7.06622705078125,-3.094663466662168,0.9757502814993262,-23.783204342222213,-0.3734553456306457,-1.7670228481292725,-2.099444627761841,jumping
1783088033993271000,7.07627099609375,-3.587466857594251,1.5663094055235385,-25.49871763626337,0.5779845118522644,-2.608402729034424,-1.9873069524765017,jumping
1783088034003315200,7.086315185546875,-3.039496875235438,1.3079939849019049,-24.73623922630548,1.2485322952270508,-2.39550518989563,-1.8061271905899048,jumping
1783088034013359000,7.096359130859375,-2.9203745289877054,0.8152823639065027,-20.87128229202032,1.4652752876281738,-1.7130427360534668,-1.5416297912597656,jumping
1783088034023404000,7.106404052734375,-2.763916139297187,0.9079226536810396,-15.566930852031708,1.3387285470962524,-1.0278019905090332,-1.2203245162963867,jumping
1783088034033448200,7.1164482421875,-2.085546045351028,1.6577984794363378,-10.766271276736258,0.9820271134376526,-0.5093149542808533,-0.7983835935592651,jumping
1783088034043492000,7.1264921875,-0.9461191133454442,2.2700585631370545,-6.858089533230662,0.4452148377895355,-0.3355865478515625,-0.3055584728717804,jumping
1783088034053536300,7.136536376953125,0.0145572254016995,2.5026263790398833,-4.771331774002313,-0.1352116912603378,-0.4537495970726013,0.1988366842269897,jumping
1783088034063581200,7.146581298828125,0.2403288052931428,2.1309601813092827,-5.433127457505464,-0.4968494474887848,-0.5349902510643005,0.570740818977356,jumping
1783088034073625000,7.156625,0.1783943271666765,2.4388947883635756,-7.569776498106122,-0.4674468338489532,-0.2977599203586578,0.6695605516433716,jumping
1783088034083669200,7.166669189453125,-0.3261711054906249,3.9126901608407496,-8.388074994963407,-0.1521447747945785,0.0560507997870445,0.6818177103996277,jumping
1783088034093713200,7.176713134765625,-0.6605930297151208,3.0374180231347676,-6.596592559963464,0.3937403857707977,0.3074955344200134,0.5621895790100098,jumping
1783088034103758000,7.186758056640625,-0.5929737839505076,2.1695327808097,-3.1650019082576035,0.918403387069702,0.5714800953865051,0.3641740679740906,jumping
1783088034113802200,7.19680224609375,0.0961021206662058,2.125438787539303,1.3094716562390327,1.198232889175415,0.8384092450141907,0.1371275931596756,jumping
1783088034123846100,7.20684619140625,0.9825509014248848,1.2803081055969,5.330697010600566,1.2576602697372437,1.0352085828781128,-0.0691883787512779,jumping
1783088034133890000,7.21689013671875,1.8118655900761484,0.4289977121062576,9.238219997936486,1.1727548837661743,0.941667139530182,-0.2714863419532776,jumping
1783088034143935200,7.226935302734375,2.4207918531790376,0.1716730560876429,12.71527768483162,0.9102097153663636,0.59615558385849,-0.4089670479297638,jumping
1783088034153979100,7.236979248046875,2.4690984957084057,-0.0903232450038194,14.268623563885688,0.4498991668224334,0.2436593174934387,-0.4348124861717224,jumping
1783088034164023000,7.24702294921875,1.6669345565721392,-0.9194408036477864,15.052244130593538,-0.0063504688441753,-0.1192847192287445,-0.4739006161689758,jumping
1783088034174067200,7.257067138671875,0.6990308969199657,-1.6433083279214795,15.052653295916318,-0.3037571310997009,-0.4767166376113891,-0.595833957195282,jumping
1783088034184112000,7.267112060546875,0.3900768836900591,-2.124723040485382,14.501866502571104,-0.454731822013855,-0.845892608165741,-0.7392773032188416,jumping
1783088034194156300,7.27715625,1.084260340578854,-2.111841347080469,13.666500551056862,-0.5079806447029114,-1.174415946006775,-0.7996370196342468,jumping
1783088034204200000,7.287199951171875,2.21903973903954,-1.85655243467316,12.648347590374946,-0.4893645346164703,-1.404366374015808,-0.750882089138031,jumping
1783088034214244000,7.297244140625,3.1406518953770397,-1.750438769210875,11.892373740005493,-0.4548792839050293,-1.5442097187042236,-0.6232325434684753,jumping
1783088034224289300,7.307289306640625,4.039250840395689,-1.7451815793350338,10.879441728842258,-0.3925926089286804,-1.576981782913208,-0.413441389799118,jumping
1783088034234333000,7.3173330078125,4.73240583101958,-1.8908495488114656,9.786343125030395,-0.2119703739881515,-1.534415364265442,-0.1723970770835876,jumping
1783088034244377000,7.327377197265625,5.101600670200586,-1.9102113980159163,8.58037042171061,0.0666495859622955,-1.4334162473678589,0.0489412024617195,jumping
1783088034254421200,7.337421142578125,5.1711201966285705,-1.5397984152168034,6.945548036453127,0.3736409544944763,-1.1489837169647217,0.2423846870660781,jumping
1783088034264466000,7.3474658203125,5.0646682391226285,-0.8878595243394374,6.208057352757454,0.5712657570838928,-0.7635380625724792,0.4381024837493896,jumping
1783088034274510000,7.357510009765625,4.456598008327186,-0.5166752649068832,6.352123293864727,0.5906893014907837,-0.3311941027641296,0.6239215731620789,jumping
1783088034284554200,7.36755419921875,3.28571093917489,-0.788400348330289,7.058975678190588,0.467454195022583,0.0796496197581291,0.7292978167533875,jumping
1783088034294598100,7.37759814453125,2.248988302579522,-1.569820043992996,7.768836012160778,0.2749188244342804,0.4445714056491852,0.6911301612854004,jumping
1783088034304643000,7.38764306640625,1.9029560200601816,-2.6333830489799377,8.301748126119374,0.0404238440096378,0.7371434569358826,0.507915198802948,jumping
1783088034314687200,7.397687255859375,2.139713688868284,-3.334151144956052,8.558660694205761,-0.1423108130693435,0.9752761125564576,0.2944460213184356,jumping
1783088034324731100,7.407731201171875,2.6100673475831746,-3.4042598694488406,8.821420234754681,-0.2495473027229309,1.116962432861328,0.1190760433673858,jumping
1783088034334775300,7.417775390625,3.0802155468538404,-3.0974422837257385,9.383753673508762,-0.312001883983612,1.17544686794281,-0.013036455027759,jumping
1783088034344820200,7.4278203125,3.3969679588750004,-2.790177538757026,9.80786229839921,-0.375378668308258,1.1734867095947266,-0.0951525866985321,jumping
1783088034354864000,7.437864013671875,3.643911798393726,-2.326733513300121,9.78680314375758,-0.4424780905246734,1.1565876007080078,-0.1278761923313141,jumping
1783088034364908300,7.447908203125,3.801645030325651,-1.786781271571666,9.469069319483635,-0.4537734985351562,1.14583420753479,-0.1114864572882652,jumping
1783088034374952200,7.4579521484375,3.886426131032407,-1.4663707754343749,9.139346951252222,-0.3840319514274597,1.1156704425811768,-0.0743657201528549,jumping
1783088034384997000,7.4679970703125,3.942204716877639,-1.3863815851792691,8.987541940325498,-0.2338828146457672,1.0212334394454956,-0.0457083396613597,jumping
1783088034395041500,7.47804150390625,3.9010719115003942,-1.5213969354771075,9.012706192198396,-0.0572158955037593,0.8391361236572266,-0.0346799232065677,jumping
1783088034405085400,7.48808544921875,3.776349845549464,-1.5197832166701557,9.131565211334824,0.1065466701984405,0.604332685470581,-0.0076099578291177,jumping
1783088034415129300,7.49812939453125,3.354100000268221,-1.4308908812522887,9.2068831949085,0.2295082807540893,0.3109396696090698,0.0313025526702404,jumping
1783088034425174500,7.508174560546875,2.7255636122882363,-1.1531456607565282,8.984637451055645,0.3300067484378814,-0.0388619378209114,0.0950057357549667,jumping
1783088034435218700,7.51821875,2.5179849839523434,-0.8364831189759075,8.66584155050814,0.45268315076828,-0.458051472902298,0.1289035230875015,jumping
1783088034445262300,7.528262451171875,2.623498491564393,-0.3699871586024761,8.36311298766434,0.5633187890052795,-0.8905913233757019,0.1545470654964447,jumping
1783088034455307500,7.5383076171875,3.1562150829508897,-0.2520373632654547,8.18539904397726,0.5814179182052612,-1.2632496356964111,0.1857590526342392,jumping
1783088034465351700,7.5483515625,3.027913697208464,-0.2765715005412698,7.993160900375247,0.6044562458992004,-1.5302869081497192,0.3480506241321563,jumping
1783088034475395300,7.558395263671875,2.4585920070022342,-0.1447241127550602,7.717349570551514,0.6342167854309082,-1.7009867429733276,0.4280381202697754,jumping
1783088034485439500,7.568439453125,1.417014916113019,-0.0621871377132833,7.240913377052546,0.5623459219932556,-1.890142798423767,0.4524205029010772,jumping
1783088034495483400,7.5784833984375,0.0430015218585729,1.1086138605907558,5.995048808327317,0.3889661431312561,-2.319831132888794,0.5732672810554504,jumping
1783088034505528600,7.588528564453125,-0.7841606649339199,3.70317471922338,3.2764468517452476,0.3116209506988525,-2.83798885345459,0.8303712010383606,jumping
1783088034515572500,7.598572509765625,-1.880067896425724,7.178079611998796,-1.1525286979019642,0.329782634973526,-2.99269437789917,1.2553067207336426,jumping
1783088034525616400,7.608616455078125,-3.4470369349017735,10.422014771717786,-6.528110559889674,0.2294697910547256,-2.747675895690918,2.0651869773864746,jumping
