time,seconds_elapsed,accel_x,accel_y,accel_z,gyro_x,gyro_y,gyro_z,label
1783088638302297900,0.0612978515625,-0.1737117953736335,-0.2396175882838666,-0.2923684968709945,-0.1364514678716659,0.3461350202560425,-0.0280688516795635,jumping
1783088638312341800,0.071341796875,-0.0599544102251529,-0.2887982371687889,-0.1016793362766504,-0.1503448486328125,0.2730271220207214,-0.0810185745358467,jumping
1783088638322386700,0.08138671875,0.0570129499457776,-0.2006355311997234,-0.2333405538409948,-0.1255329698324203,0.2428963780403137,-0.1215452253818512,jumping
1783088638332430800,0.091430908203125,0.1794683861389756,0.0230028360553085,-0.445337290880084,-0.0533887222409248,0.2394448667764663,-0.1268454641103744,jumping
1783088638342474800,0.101474853515625,0.1348837963400408,0.0054077042624354,-0.5897375785082578,0.0315812975168228,0.256194531917572,-0.1217542961239814,jumping
1783088638352519700,0.111519775390625,0.0033076632432639,-0.0693807024791836,-0.416696302807331,0.0839920789003372,0.2611263990402221,-0.1148603931069374,jumping
1783088638362563800,0.121563720703125,0.0381460081188008,-0.146622932113707,0.025766893941164,0.0796886757016182,0.2387970983982086,-0.1123306602239608,jumping
1783088638372607700,0.131607666015625,0.0882189296683296,-0.2574405374832451,0.3084235596150159,0.0347994826734066,0.1937686949968338,-0.0924152582883834,jumping
1783088638382652700,0.141652587890625,0.0967709963710978,-0.3925634398087859,0.3811895206183195,0.0063462695106863,0.1073989197611808,-0.0601934157311916,jumping
1783088638392696800,0.15169677734375,0.1818320830630138,-0.774131292220205,0.1625964540541171,0.0337320677936077,0.0300684943795204,-0.0387232713401317,jumping
1783088638402740700,0.16174072265625,0.2744691944997757,-0.776145554652065,-0.4764765255093574,0.1207287535071373,0.0252923816442489,-0.0098048038780689,jumping
1783088638412785000,0.171784912109375,0.2741801118927076,-0.3172051242247223,-0.8542384097665547,0.2775226235389709,0.0437968000769615,0.0261990018188953,jumping
1783088638422829600,0.18182958984375,0.3286203252736479,-0.0709536508843302,-0.7619646152168512,0.4083773195743561,0.0378552861511707,0.0425529405474662,jumping
1783088638432873700,0.191873779296875,0.5088160027738661,0.1508703604251146,-0.7284837858974933,0.460271805524826,-0.0320066288113594,0.0554086863994598,jumping
1783088638442918000,0.20191796875,0.6110181938808411,0.487492863433808,-0.7513859380573034,0.5085408091545105,-0.1317651867866516,0.1089771091938018,jumping
1783088638452962600,0.211962646484375,0.5086107625253499,0.7548090443737805,-0.9358996248871088,0.6195077300071716,-0.2158830612897873,0.1950370669364929,jumping
1783088638463006700,0.2220068359375,0.2401189984673634,0.6749963797293603,-0.8173363738268613,0.7890661358833313,-0.3190768361091614,0.246359646320343,jumping
1783088638473051000,0.23205078125,0.0580571983017027,0.4615948904588818,-0.5649100112438201,0.971620798110962,-0.4054768085479736,0.280946135520935,jumping
1783088638483095600,0.242095458984375,-0.0007604629784822,0.3292180719710886,-0.2324491579592227,1.0655534267425537,-0.5228561758995056,0.2910826802253723,jumping
1783088638493139700,0.2521396484375,0.063574719614163,0.0713087479323148,0.2068774943292141,0.99285888671875,-0.7249765992164612,0.3046005070209503,jumping
1783088638503184000,0.262183837890625,0.1100450135618448,0.2218580597095191,0.3960328694850206,0.8311046361923218,-0.8314923644065857,0.3627386689186096,jumping
1783088638513228500,0.272228515625,0.0767703012738376,0.6190171567454934,-0.1992746181100606,0.8046635985374451,-0.6592996120452881,0.4273037314414978,jumping
1783088638523272700,0.282272705078125,0.2044870920613408,1.0423480021964755,-0.5443827715218067,0.7926865220069885,-0.5226567983627319,0.4730826616287231,jumping
1783088638533316900,0.29231689453125,0.8014276607509702,1.126446016009897,-0.4098059587717056,0.6587998270988464,-0.3907371163368225,0.5151533484458923,jumping
1783088638543361500,0.302361572265625,1.3129422549590468,1.2127552761320024,-0.4488403305649757,0.3709123730659485,-0.3023398518562317,0.5581626296043396,jumping
1783088638553405700,0.31240576171875,1.4771449751660226,1.1738235609956085,0.1897276220858097,0.0262164045125246,-0.3560270965099334,0.5717135071754456,jumping
1783088638563449900,0.322449951171875,1.3956702225282789,0.7754271772496402,1.3882780664503571,-0.2544706761837005,-0.5972559452056885,0.5382516980171204,jumping
1783088638573494800,0.332494873046875,0.696853114489466,-0.0983893548205494,2.3549048380345106,-0.3869220018386841,-0.8734548091888428,0.4096632003784179,jumping
1783088638583538700,0.34253857421875,-0.2481896017961204,-1.1879348692607137,1.9361165313839912,-0.3985741734504699,-0.9981192350387572,0.2112835496664047,jumping
1783088638593582600,0.35258251953125,-1.1260496371034532,-2.03614839271456,1.0771218670010565,-0.338902473449707,-1.033801555633545,-0.0338315814733505,jumping
1783088638603627800,0.362627685546875,-1.4481075351215895,-2.2730662205204366,0.9415800086110828,-0.2439847588539123,-1.048830509185791,-0.241660937666893,jumping
1783088638613671700,0.372671630859375,-1.2428057656764984,-1.7213788250736892,1.134063651406765,-0.1404460221529007,-1.037753343582153,-0.3600727319717407,jumping
1783088638623715600,0.382715576171875,-0.7623615055799484,-0.8445869304545223,1.1914584402769803,-0.0494668446481227,-0.9946944713592528,-0.3875198066234588,jumping
1783088638633760800,0.3927607421875,-0.3258190771825611,-0.217881118902564,1.197768354076147,0.0160360615700483,-0.9349021315574646,-0.3657577335834503,jumping
1783088638643804700,0.4028046875,0.0588052401900291,0.056011152492091,1.07428050609529,0.0680278912186622,-0.8307230472564697,-0.3307922780513763,jumping
1783088638653848600,0.4128486328125,0.3927550168581307,0.2868013642631471,0.6498176609396934,0.116535410284996,-0.6448946595191956,-0.2689790725708008,jumping
1783088638663893800,0.422893798828125,0.7349120653793215,0.534907963950932,0.4093804268360138,0.1598847508430481,-0.425193727016449,-0.2051185965538025,jumping
1783088638673938000,0.43293798828125,1.3565619087159633,0.7424988672465086,0.5781184523850679,0.12012530118227,-0.2569497525691986,-0.1615384072065353,jumping
1783088638683981600,0.442981689453125,1.4336816810145974,0.9644328417364508,0.7874228816002606,-0.021139683201909,-0.1548047363758087,-0.1392959505319595,jumping
1783088638694025700,0.453025634765625,0.8045718770608306,0.9623984132993966,0.8504132985204458,-0.2445578128099441,-0.0690289512276649,-0.152258038520813,jumping
1783088638704071000,0.46307080078125,0.1555015273571014,0.4835838002312928,0.9481441894322632,-0.4908392131328583,-0.0060425302945077,-0.2163502126932144,jumping
1783088638714114600,0.473114501953125,-0.4423752262040972,-0.1260981766097247,1.0848562606453895,-0.6732133626937866,-0.0278448369354009,-0.3091039359569549,jumping
1783088638724158700,0.48315869140625,-0.8654954245790839,-0.7447425545200705,0.9751561149984598,-0.748563289642334,-0.0751284584403038,-0.4286535084247589,jumping
1783088638734204000,0.493203857421875,-0.9594463585607708,-1.2608733372867107,0.5832523081421852,-0.6976050734519958,-0.0906170085072517,-0.5331746339797974,jumping
1783088638744247600,0.50324755859375,-0.7555113474242389,-1.345806998206675,0.609737579485774,-0.5667194724082947,-0.140195220708847,-0.5885733962059021,jumping
1783088638754291700,0.513291748046875,-0.3023797494061291,-1.1273165152341127,0.8591016318887472,-0.3729980587959289,-0.2076060026884079,-0.6069166660308838,jumping
1783088638764337000,0.5233369140625,0.3004964198775589,-0.9479453058592976,0.9047913699179888,-0.1298240423202514,-0.2716318666934967,-0.5886875987052917,jumping
1783088638774380800,0.533380859375,0.7870501027651131,-0.8586500887289643,0.7392419112771749,0.1647374182939529,-0.3093414008617401,-0.5393158793449402,jumping
1783088638784424700,0.5434248046875,1.0715839604876936,-0.8731308878935873,0.5688520268678665,0.4551956057548523,-0.3106825649738312,-0.4948272705078125,jumping
1783088638794470000,0.553469970703125,1.225940847854316,-0.8904584547914564,0.6464712731212378,0.6537303924560547,-0.3086715936660766,-0.4393230974674225,jumping
1783088638804513800,0.563513671875,1.210205080192536,-0.7205477322012186,0.9735346512764692,0.6661244630813599,-0.3487657308578491,-0.3662659227848053,jumping
1783088638814557700,0.5735576171875,1.052517587098479,-0.2740039150755852,1.2346166140019892,0.5113474130630493,-0.401688277721405,-0.2906317114830017,jumping
1783088638824603000,0.583602783203125,0.9258329889029264,0.0680360829371958,1.4124673358112574,0.3045198917388916,-0.4455465376377105,-0.1712757796049118,jumping
1783088638834646800,0.593646728515625,1.0132448765046893,0.0677829849589616,1.8349632648080587,0.1521492898464203,-0.5112949013710022,-0.0283119119703769,jumping
1783088638844690700,0.603690673828125,1.0867857674032448,0.233749573033303,2.167767232441902,0.0819720551371574,-0.5399705171585083,0.1261972337961197,jumping
1783088638854736000,0.61373583984375,1.079886655539274,0.5573120303954929,2.2510218542337417,0.0949653089046478,-0.49769327044487,0.3194894194602966,jumping
1783088638864779800,0.62377978515625,1.0425434517033398,0.7379672882314771,2.4084996500998734,0.1481395810842514,-0.4276321828365326,0.5470085740089417,jumping
1783088638874824000,0.633823974609375,1.0790278467528522,0.8104106662169098,2.6653935134857893,0.2084626704454422,-0.3606605529785156,0.7806767821311951,jumping
1783088638884868900,0.643868896484375,1.0097194788575172,0.7481044321686029,2.918221442607045,0.258401483297348,-0.2652240395545959,0.9753477573394777,jumping
1783088638894912800,0.653912841796875,0.3868482770323753,0.644209319538623,3.1938492325574157,0.2869089245796203,-0.068895123898983,1.1151280403137207,jumping
1783088638904957000,0.66395703125,-0.3988438352525234,0.5435347763903439,3.56712198870182,0.259134829044342,0.1546348929405212,1.2040448188781738,jumping
1783088638915000600,0.67400048828125,-0.9769378838486968,0.3942909942537546,4.129279486367106,0.1770040392875671,0.4200303256511688,1.2575560808181765,jumping
1783088638925045800,0.684045654296875,-1.2365733010277151,0.2588694012425839,4.54621310506165,0.0370834097266197,0.6657466292381287,1.2136069536209106,jumping
1783088638935090000,0.69408984375,-1.0201504181094467,0.2361441400196403,4.974920163658261,-0.1479077190160751,0.8098456859588623,1.057821273803711,jumping
1783088638945133600,0.704133544921875,-0.8056424289017915,0.2749992827884853,5.1625984519988295,-0.3244912922382355,0.834973156452179,0.8463171124458313,jumping
1783088638955178800,0.7141787109375,-0.7641533574327826,-0.261167887443304,4.657279862886667,-0.4080910682678222,0.7031052708625793,0.6344687342643738,jumping
1783088638965222700,0.72422265625,-0.7871215605661273,-1.2644200699828565,3.330384193637967,-0.2998910844326019,0.6623365879058838,0.3897894918918609,jumping
1783088638975266800,0.734266845703125,-1.110734213745594,-1.408378459062427,0.8693594065308571,-0.0668762922286987,0.7570512294769287,0.1922369748353958,jumping
1783088638985311700,0.744311767578125,-1.248157355837524,-0.9795872293137012,-0.6677157212018966,0.1530118733644485,0.9416399598121644,-0.0126796877011656,jumping
1783088638995355600,0.754355712890625,-1.1556290020048618,-0.546276914705336,-2.104217428073287,0.3491263091564178,1.131261706352234,-0.2012649923563003,jumping
1783088639005399800,0.76439990234375,-1.255480246071517,-0.0645047670058906,-2.942055907180906,0.477672278881073,1.2866902351379397,-0.3309534788131714,jumping
1783088639015444700,0.77444482421875,-0.9394951651610434,0.7693487341187893,-3.090941231268644,0.4392884969711303,1.278185486793518,-0.3562526404857635,jumping
1783088639025488600,0.784488525390625,-0.3087361326955258,1.19694242464602,-3.185044579333067,0.2398864477872848,1.036852240562439,-0.309709370136261,jumping
1783088639035532800,0.79453271484375,-0.1118222523674368,0.5376705605320632,-4.182604249319434,-0.0578147508203983,0.7244009375572205,-0.2712301313877105,jumping
1783088639045577700,0.80457763671875,-0.5971598374634981,-0.8970144523061812,-6.449776443365216,-0.3305962085723877,0.4199608564376831,-0.3362134099006653,jumping
1783088639055621600,0.81462158203125,-1.4251533605135975,-2.517819271996617,-8.939470275595784,-0.4326521158218384,0.1971924602985382,-0.5200632810592651,jumping
1783088639065665800,0.824665771484375,-1.750314119917899,-3.197866651505232,-11.257747802978754,-0.3891981244087219,0.1115097776055336,-0.7034624218940735,jumping
1783088639075710700,0.834710693359375,-1.442832078936696,-2.2661636015251276,-13.158596621626614,-0.3281092643737793,0.1182431355118751,-0.7872702479362488,jumping
1783088639085754600,0.844754638671875,-1.142858952280879,-0.6140117496736347,-13.573757969951629,-0.2848083972930908,0.1317959576845169,-0.7637465596199036,jumping
1783088639095798800,0.854798828125,-1.1252535913549362,0.6446750373542308,-13.174524843120574,-0.205655038356781,0.1504286527633667,-0.6899977922439575,jumping
1783088639105843500,0.864843505859375,-0.7839350394845008,1.4676023630559445,-12.362148137527704,-0.0857563391327858,0.0817382708191871,-0.5444978475570679,jumping
1783088639115887600,0.8748876953125,-0.6036880701884627,2.1352517410233616,-12.133850254029037,-0.013698992319405,0.00770731177181,-0.3411371111869812,jumping
1783088639125931800,0.884931884765625,-0.676376289780438,1.9292497143544256,-12.590820115035772,-0.0121202701702713,0.0110852643847465,-0.1585220247507095,jumping
1783088639135976400,0.8949765625,-0.7255909870654345,1.1292800703920425,-13.197814533293249,-0.0265866219997406,0.181487500667572,-0.0595736466348171,jumping
1783088639146020600,0.9050205078125,-0.7293876759346574,0.7172695873133837,-13.490674028551576,-0.0337683707475662,0.4571134746074676,0.01163768209517,jumping
1783088639156064800,0.915064697265625,-0.5483819241605699,0.956586877476424,-12.768927441954611,-0.0186323076486587,0.6502283811569214,0.0978580042719841,jumping
1783088639166108700,0.925108642578125,-0.4372613903217017,1.417407860953361,-11.364569178318977,0.0202881935983896,0.7623950839042664,0.2178083807229995,jumping
1783088639176153600,0.935153564453125,-0.5044071733556688,1.8258643048122525,-9.516236144328117,0.0639248564839363,0.7919881939888,0.3320947289466858,jumping
1783088639186197800,0.94519775390625,-0.3243536077398806,1.848222267092764,-7.097181782466173,0.0998106896877288,0.7173283696174622,0.4336256086826324,jumping
1783088639196241700,0.95524169921875,-0.1763658170137554,1.6477315511912107,-3.9378380461007354,0.1709052324295044,0.4355067908763885,0.5089503526687622,jumping
1783088639206286600,0.96528662109375,-0.1334437170669436,1.348216397435963,-0.5511000970780849,0.2591352462768554,-0.0162225812673568,0.5258749723434448,jumping
1783088639216330800,0.975330810546875,-0.3956817179597914,0.3415858245044946,2.4974282258749008,0.3456401824951172,-0.5803813934326172,0.4695312082767486,jumping
1783088639226374700,0.985374755859375,-0.7962745888367295,-0.4941217800542712,5.547112733125687,0.371797502040863,-1.1394236087799072,0.358210027217865,jumping
1783088639236419600,0.995419677734375,-0.4004801312174648,-0.8267222610052675,7.568719682529569,0.2640204429626465,-1.6342887878417969,0.2220236808061599,jumping
1783088639246463700,1.005463623046875,0.1899044399574398,-0.8220086034215986,9.236232038989662,0.06736970692873,-2.119493246078491,0.0507765598595142,jumping
1783088639256507600,1.015507568359375,0.3624693303182721,-0.9311815833892672,10.216162528783082,-0.1330903619527816,-2.502289295196533,-0.1693341881036758,jumping
1783088639266552600,1.025552490234375,1.0156335252068935,-1.3808828416325152,10.414684867221116,-0.2376367449760437,-2.7579824924468994,-0.4600746929645538,jumping
1783088639276596500,1.035596435546875,1.5787003928020595,-1.833244039800018,10.273416447877883,-0.2521879076957702,-2.8333077430725098,-0.7831551432609558,jumping
1783088639286640600,1.045640625,1.975915019417554,-1.8712800482057037,10.468808087074756,-0.2163262963294983,-2.792083501815796,-1.0412226915359497,jumping
1783088639296685600,1.055685546875,2.5398390883639452,-1.4544362997516989,10.757024140441416,-0.1618995368480682,-2.67189359664917,-1.177954077720642,jumping
1783088639306729500,1.0657294921875,3.060021484608948,-0.8313169683843851,11.298925032019614,-0.1013091728091239,-2.5711922645568848,-1.210153579711914,jumping
1783088639316773600,1.075773681640625,3.784968036291003,-0.3418679293815046,11.925270631957051,0.0278665274381637,-2.5386078357696533,-1.1620492935180664,jumping
1783088639326818800,1.08581884765625,4.536410088449716,-0.0613488602582365,12.091485276508331,0.2410791963338852,-2.432478189468384,-1.0294771194458008,jumping
1783088639336862500,1.095862548828125,5.158224474698305,0.2742841933216899,11.445855130386352,0.5076208114624023,-2.1619582176208496,-0.8376705050468445,jumping
1783088639346906600,1.10590673828125,5.422199236255884,0.5678271407995372,10.591066685521602,0.7256641983985901,-1.7106424570083618,-0.5874074101448059,jumping
1783088639356950800,1.11595068359375,5.490642073363065,0.9315202407591044,9.550998245629668,0.7880825400352478,-1.1532394886016846,-0.2930213510990143,jumping
1783088639366995500,1.125995361328125,5.4386628798007965,0.9522861846078188,8.79480753763914,0.6658000349998474,-0.6087649464607239,0.0030723777599632,jumping
1783088639377039600,1.13603955078125,5.3043625459045165,0.5387568213988095,8.342495731571317,0.4248059391975403,-0.0826777145266532,0.2689749598503113,jumping
1783088639387083800,1.146083740234375,5.149619143438339,0.0998519747190177,7.732904867079854,0.1119614690542221,0.4487291872501373,0.4979802072048187,jumping
1783088639397128700,1.156128662109375,4.890594697764516,-0.4276537501513958,7.350133630228042,-0.2231964617967605,0.945349395275116,0.6548945307731628,jumping
1783088639407172600,1.166172607421875,4.536096784716844,-0.8054348505657166,7.374136437106132,-0.5195764899253845,1.3275330066680908,0.7497488856315613,jumping
1783088639417216800,1.176216796875,4.450002555584907,-0.7787268033169209,7.813115298870206,-0.7145686745643616,1.4936892986297607,0.8173062205314636,jumping
1783088639427261700,1.18626171875,4.217592560592293,-0.3396655239664018,8.452956924718618,-0.7410333156585693,1.4566413164138794,0.8964588642120361,jumping
1783088639437305600,1.1963056640625,3.610249182766675,0.230156663107872,8.871728280234336,-0.5741115212440491,1.2994937896728516,0.9971800446510316,jumping
1783088639447349500,1.206349609375,2.9190558476045725,0.9566820084139704,8.824915091133118,-0.2829819619655609,1.105871081352234,1.1597177982330322,jumping
1783088639457394700,1.216394775390625,2.702956351421774,1.9234977266989648,8.485479722660779,0.023984171450138,0.7970262169837952,1.4510453939437866,jumping
1783088639467438600,1.2264384765625,2.605562145118415,2.733345352205634,7.645361023661493,0.248973861336708,0.5076780319213867,1.8228628635406496,jumping
1783088639477482500,1.236482421875,2.4118784788832066,2.7590292440384623,6.384390655741095,0.2893197238445282,0.4169164597988128,2.1802268028259277,jumping
1783088639487527700,1.246527587890625,2.090800312617421,2.667366859385371,5.22300469764471,0.0686115622520446,0.4836712777614593,2.4891042709350586,jumping
1783088639497571600,1.256571533203125,1.8756544638976451,3.058025926877558,4.24672980774939,-0.3203746974468231,0.6143816709518433,2.7141270637512207,jumping
1783088639507615500,1.266615478515625,1.2563400777712463,2.6591736160576342,3.3576544778794046,-0.7160517573356628,0.7365099787712097,2.7716145515441895,jumping
1783088639517660700,1.27666064453125,-0.1020727195084094,1.705144314109534,2.6433552846789357,-0.9360141754150392,0.858366847038269,2.669885635375977,jumping
1783088639527704800,1.286704833984375,-1.0716425588071343,1.4180774307779966,1.384685010394454,-0.8905420303344727,1.0128458738327026,2.547262191772461,jumping
1783088639537748500,1.29674853515625,-1.258435296484828,2.2764172845140096,-0.4955740246891975,-0.6640879511833191,1.096158504486084,2.5297670364379883,jumping
1783088639547792600,1.306792724609375,-1.5695061557382344,2.6015461874753236,-4.105351498290896,-0.3675979375839233,1.4234317541122437,2.3954453468322754,jumping
1783088639557837800,1.316837890625,-3.0304788715213538,0.7144545298926532,-9.120057728892563,-0.1699487417936325,2.133587598800659,1.9067081212997437,jumping
1783088639567881500,1.326881591796875,-4.875443890383839,-2.7511773614943027,-14.537140060526133,-0.1303936094045639,3.113576650619507,1.1449030637741089,jumping
1783088639577925600,1.336925537109375,-3.77428706780076,-4.398510853278637,-18.062894266051053,-0.1701648235321045,3.879566431045532,0.5060655474662781,jumping
1783088639587970800,1.346970703125,-2.247674881893396,-3.306832053136825,-18.684997406113148,-0.1576415747404098,4.173492431640625,0.0074336151592433,jumping
1783088639598014700,1.3570146484375,-1.8863266645595431,-2.4026959322571755,-16.900378427141902,-0.0367918387055397,4.197207450866699,-0.4525952339172363,jumping
1783088639608058600,1.36705859375,-2.4276592547304925,-1.0256756112717091,-15.100697488117218,0.1177727058529853,4.20781946182251,-0.7300260663032532,jumping
1783088639618103800,1.377103759765625,-2.361668925341964,1.6895872640155254,-13.58483582880497,0.2819676995277405,4.001500606536865,-0.7394883632659912,jumping
1783088639628147700,1.387147705078125,-1.629973776182532,2.9895272679299114,-12.586224603939057,0.3300180435180664,3.2935030460357666,-0.748770534992218,jumping
1783088639638191600,1.397191650390625,-0.9208356920722872,1.3995676683582363,-13.460652984297274,0.2848675847053528,2.0602245330810547,-0.8221592307090759,jumping
1783088639648236800,1.40723681640625,0.1276754358638077,-0.4650583287857472,-15.213585031628607,0.2292786389589309,0.4878217577934265,-0.8464816212654114,jumping
1783088639658280700,1.41728076171875,1.300832422709465,-1.069020539740473,-17.247901240479944,0.2220083773136139,-1.057168960571289,-0.8008663058280945,jumping
1783088639668324600,1.42732470703125,1.806622574856132,-1.3476092253230512,-19.361272865867612,0.3316778838634491,-2.108469009399414,-0.7564677000045776,jumping
1783088639678369800,1.437369873046875,1.5412757942929862,-0.8293218490444123,-19.947999572122097,0.406150609254837,-2.6259524822235107,-0.757208526134491,jumping
1783088639688413700,1.44741357421875,1.0468703019265084,0.279446763716638,-18.57746642119884,0.3373555839061737,-2.711885452270508,-0.7573707103729248,jumping
1783088639698457600,1.45745751953125,0.085743497731816,0.6854058378018438,-16.159593962597846,0.1553907990455627,-2.4007084369659424,-0.8147671222686768,jumping
1783088639708501500,1.46750146484375,-0.8469529289335012,0.5462829060547053,-12.470278841900823,-0.0954859033226966,-2.019601821899414,-0.9248659610748292,jumping
1783088639718546700,1.477546630859375,-1.3024741985671222,1.1603627525284883,-8.396317338129878,-0.4801245033740997,-1.774147868156433,-0.9872980117797852,jumping
1783088639728590800,1.4875908203125,-1.343870331055671,1.8420429939359424,-5.273483423516154,-0.9113728404045104,-1.6355013847351074,-0.9290980696678162,jumping
1783088639738634500,1.497634521484375,-0.8456465955752879,2.298512358074635,-3.138200995093584,-1.2451739311218262,-1.6720534563064575,-0.7993959188461304,jumping
1783088639748679700,1.5076796875,0.1082438824240118,3.009360095646977,-1.6392466314405203,-1.3019551038742063,-1.884042739868164,-0.6045766472816467,jumping
1783088639758723800,1.517723876953125,1.011150096182525,3.790864985375106,-1.144772676947713,-1.0073803663253784,-2.0615744590759277,-0.3278011679649353,jumping
1783088639768767500,1.527767578125,1.7578209884166716,3.9054105252265927,-0.2655950562357902,-0.6702492237091064,-2.226184129714966,-0.0301550850272178,jumping
1783088639778812700,1.537812744140625,1.9694177663527428,3.329254020564258,1.5660317576259373,-0.4317016303539276,-2.4124886989593506,0.2140866667032241,jumping
1783088639788856800,1.54785693359375,1.6168172113589945,2.0360840953066943,3.359476432609558,-0.3587358295917511,-2.517972469329834,0.3258989453315735,jumping
1783088639798900500,1.557900390625,1.3752609100975095,0.5535118343949318,5.440018386062979,-0.4744945466518402,-2.561196565628052,0.3148695528507232,jumping
1783088639808945700,1.567945556640625,1.3215478784799577,-0.4831064650431275,7.517799058109522,-0.6994158029556274,-2.6237101554870605,0.2303211092948913,jumping
1783088639818989800,1.57798974609375,1.4879802574351428,-1.491635565072298,9.29396117438078,-0.9284995198249816,-2.756629943847656,0.0498014874756336,jumping
1783088639829033700,1.58803369140625,1.833547260530293,-2.603720024383068,10.541520272064208,-1.0490658283233645,-2.9662058353424072,-0.1830642521381378,jumping
1783088639839078700,1.59807861328125,2.901883471268415,-3.018539427402615,11.554171712720391,-1.0222926139831543,-3.2842812538146973,-0.3803045749664306,jumping
1783088639849122800,1.608122802734375,4.281900197590887,-2.604802851183712,12.278272753489016,-0.8199133276939392,-3.571803331375122,-0.4698917269706726,jumping
1783088639859166700,1.618166748046875,4.999902044701576,-2.1364932655170557,12.398210800033809,-0.5158567428588867,-3.672596693038941,-0.4921210706233978,jumping
1783088639869210600,1.628210693359375,5.161315426450967,-2.408343582755327,12.121281864356996,-0.2364466488361358,-3.5239157676696777,-0.5150492787361145,jumping
1783088639879255800,1.638255859375,5.40258618876934,-2.6968744011595844,11.550531310391426,-0.0448668785393238,-3.074427366256714,-0.5125299692153931,jumping
1783088639889299700,1.6482998046875,5.584780492740869,-2.79748055524677,10.454050078403949,0.0900049209594726,-2.3797378540039062,-0.5035692453384399,jumping
1783088639899343600,1.658343505859375,5.533151427790522,-2.8988819513648747,9.101783236533404,0.2055039852857589,-1.4968565702438354,-0.5037984251976013,jumping
1783088639909388500,1.668388427734375,5.257643464827537,-2.8422406112104652,7.832648266857862,0.246536374092102,-0.4888061583042145,-0.5254858732223511,jumping
1783088639919432700,1.6784326171875,4.87654279153645,-2.808153924952447,6.7397875634551045,0.1875268667936325,0.521614134311676,-0.550000786781311,jumping
1783088639929476900,1.688476806640625,4.856939680922031,-2.7553929333627223,5.907398581925034,0.0750170946121215,1.4386926889419556,-0.5550152063369751,jumping
1783088639939521500,1.698521484375,4.744843872310221,-2.3037156258061526,5.332258268567919,-0.0363375097513198,2.2112293243408203,-0.5349830985069275,jumping
1783088639949565200,1.708565185546875,4.2134556069180364,-2.0510259361118077,5.266835656064749,-0.1289188414812088,2.804781436920166,-0.5384483933448792,jumping
1783088639959609300,1.718609375,3.7709064854517576,-2.26733322982639,5.663727188205718,-0.2081827819347381,3.1977219581604004,-0.5566763877868652,jumping
1783088639969654300,1.728654296875,3.4675150747850534,-2.307505957999825,6.169641405123472,-0.227394551038742,3.375835418701172,-0.5290774703025818,jumping
1783088639979698200,1.7386982421875,3.4083602905049917,-2.227173361134529,6.774706901144981,-0.155616894364357,3.244774580001831,-0.4776727259159088,jumping
1783088639989742300,1.748742431640625,3.440260280373692,-2.478548168838024,7.598248559352755,0.021316073834896,2.8043651580810547,-0.4504893124103546,jumping
1783088639999787300,1.758787353515625,3.412157344700396,-2.7371362689211964,8.169204280501603,0.1744161546230316,2.4140443801879883,-0.3937804698944092,jumping
1783088640009831200,1.7688310546875,3.5004791867539287,-1.9541893636912109,8.079779445642233,0.3226921856403351,1.7672570943832395,-0.3356039822101593,jumping
1783088640019875300,1.778875244140625,2.83470524726957,-3.2620556305602193,9.629563248300553,0.4552471935749054,1.3071725368499756,-0.3515428304672241,jumping
1783088640029920300,1.788920166015625,2.8310630913749337,-3.656474635107815,8.720064139083027,0.4983994662761688,1.0176427364349363,-0.4390204846858978,jumping
1783088640039964200,1.798964111328125,2.684138545966148,-3.1979502381354568,9.415496719250084,0.4151768982410431,0.6820691823959351,-0.5171758532524109,jumping
1783088640050008300,1.80900830078125,2.994175678257644,-2.463590545941889,9.541386367675662,0.307774543762207,0.3554575145244598,-0.5080974102020264,jumping
1783088640060052200,1.81905224609375,3.3253084978088734,-0.4400403535157441,8.836720679739116,0.215840607881546,-0.0403009727597236,-0.2343697845935821,jumping
1783088640070097200,1.82909716796875,2.609352477312088,2.2752669454351064,7.650210801780223,0.1652453392744064,-0.5951372385025024,0.3036753237247467,jumping
1783088640080141300,1.839141357421875,2.6131349184602497,4.151754937547445,6.0921402322918174,0.1623239368200302,-1.0945535898208618,0.8387920260429382,jumping
1783088640090185200,1.849185302734375,3.232892956700921,3.994752065716684,4.441058201628923,0.1357088387012481,-1.442743897438049,1.202426195144653,jumping
1783088640100230100,1.859230224609375,2.4443723429918287,3.1708558949828145,2.627385562130809,0.1001292690634727,-1.5189027786254885,1.4034581184387207,jumping
1783088640110274300,1.8692744140625,0.9817024679020048,2.0898294217586515,0.4618284069538116,0.0910787880420684,-1.1286567449569702,1.4435964822769165,jumping
1783088640120318200,1.879318115234375,-0.1332075702235102,1.295062314875424,-1.9265321259588,0.0967365205287933,-0.4091627597808838,1.3773800134658811,jumping
1783088640130363100,1.889363037109375,-0.5956830429092049,1.2766928377091884,-4.3321407307922835,0.0870154500007629,0.449954628944397,1.2990758419036863,jumping
1783088640140407300,1.8994072265625,-3.2728868211761113,1.593347342313826,-8.130021440148353,-0.0491245165467262,1.812211275100708,1.1226524114608765,jumping
1783088640150451200,1.909451171875,-6.73492901750803,0.383228917491436,-14.536388365375997,-0.2359543293714523,3.5154380798339844,0.6871595978736877,jumping
1783088640160496000,1.91949609375,-7.858955259025096,-2.6961890492439267,-21.25767931815386,-0.1515083611011505,4.863563537597656,-0.0036659517791122,jumping
1783088640170540300,1.929540283203125,-6.201408416262269,-3.206743493182957,-22.907080848383902,0.228646695613861,5.02061128616333,-0.5773372054100037,jumping
1783088640180584200,1.939584228515625,-3.792776079693436,-1.440055015438795,-19.82499746183157,0.6504654884338379,4.329846382141113,-0.9698734879493712,jumping
1783088640190629000,1.949629150390625,-2.989733311896026,-0.2761629197403788,-17.12662814593911,0.7669534683227539,3.5967612266540527,-1.2186156511306765,jumping
1783088640200673300,1.95967333984375,-3.639153205689788,0.7019602283701301,-15.951763697588444,0.6384222507476807,3.1406068801879883,-1.4199531078338623,jumping
1783088640210717200,1.96971728515625,-4.068739969730377,1.6473638869225975,-15.356893432366848,0.4391336441040039,2.7355923652648926,-1.442081332206726,jumping
1783088640220761300,1.97976123046875,-3.1343291220963,2.3738285880826413,-15.270248583614825,0.3212250471115112,2.115885972976685,-1.305272102355957,jumping
1783088640230806300,1.98980615234375,-2.1656479022003707,2.203873295698315,-16.592953815436363,0.2554566860198974,1.4055231809616089,-1.0714740753173828,jumping
1783088640240850200,1.99985009765625,-1.0449021436586976,1.3083718783035874,-18.118261348485944,0.2311973869800567,0.6398190855979919,-0.7849842309951782,jumping
1783088640250894300,2.009894287109375,-0.2277365050225518,0.6059601067736744,-18.53599576216936,0.2318914085626602,-0.1206079050898552,-0.527886688709259,jumping
1783088640260939300,2.019939208984375,0.0348869697902351,0.5916827212266623,-18.62967825447321,0.2335183322429657,-0.5486208200454712,-0.2980337142944336,jumping
1783088640270983200,2.029983154296875,0.2249477328205481,1.248968379959464,-17.458255471009014,0.2336011528968811,-0.6764064431190491,-0.165282055735588,jumping
1783088640281027300,2.04002734375,0.5249953494846821,1.3947680129915474,-14.884169537389278,0.2171882390975952,-0.6690857410430908,-0.1470435708761215,jumping
1783088640291072300,2.050072265625,0.1755689675476402,1.5769444890454412,-11.448083327829837,0.1977961659431457,-0.6152706742286682,-0.2116222977638244,jumping
1783088640301116200,2.0601162109375,-0.2178577745595946,1.9283001585446296,-7.46675568409264,0.1600929498672485,-0.7476441264152527,-0.2783810794353485,jumping
1783088640311160300,2.070160400390625,-0.3504972260389477,2.177185925911367,-4.009793859764933,0.1487763822078704,-1.0131386518478394,-0.3199191987514496,jumping
1783088640321205200,2.080205322265625,-0.1022648810796439,2.475716744804382,-1.7469541419655084,0.1688830703496933,-1.2721877098083496,-0.3426814973354339,jumping
1783088640331249200,2.090249267578125,0.2889002362385392,2.726418767812848,0.1277519351661205,0.1795902997255325,-1.5011776685714722,-0.3429664373397827,jumping
1783088640341293300,2.100293212890625,0.4464195331588387,2.2779753276109695,1.9084686460018156,0.165334478020668,-1.7014915943145752,-0.3790572583675384,jumping
1783088640351337200,2.110337158203125,0.363256023716554,1.2047731182716783,3.627617081674934,0.1347075998783111,-1.835174798965454,-0.4799428582191467,jumping
1783088640361382100,2.120382080078125,0.5190121834218502,0.0837529267027974,5.2511231231480835,0.1063791513442993,-1.8938385248184204,-0.6399081349372864,jumping
1783088640371426300,2.13042626953125,1.014434524680674,-0.7728978049024939,6.9924249384403225,0.078577883541584,-1.8742682933807373,-0.8130332827568054,jumping
1783088640381470200,2.14047021484375,1.3460777779720725,-1.2368128088720145,8.923075021111964,-0.0083134807646274,-1.840822696685791,-0.97628253698349,jumping
1783088640391515100,2.15051513671875,1.6676929737240076,-0.94160879631415,10.691955163681506,-0.119642399251461,-1.707396149635315,-1.0266332626342771,jumping
1783088640401559300,2.160559326171875,2.114877938297391,-0.2226581240460276,12.026841831684113,-0.2219226956367492,-1.5903184413909912,-0.9793129563331604,jumping
1783088640411603200,2.170603271484375,2.7767630536496637,0.2700327464222908,13.296197750633954,-0.2974360883235931,-1.5732800960540771,-0.8515187501907349,jumping
1783088640421648400,2.1806484375,3.578840483546257,0.7495857567675411,13.993050718992947,-0.3299215734004974,-1.6666866540908811,-0.639164388179779,jumping
1783088640431692300,2.1906923828125,4.4058325744688505,1.286208854073286,14.216573058652877,-0.2813340723514557,-1.8327171802520752,-0.3480215072631836,jumping
1783088640441736200,2.200736083984375,5.065004923731088,1.5805742238499223,13.727369153517484,-0.1369992047548294,-1.9235278367996216,-0.0501354485750198,jumping
1783088640451781400,2.210781494140625,5.200960039097071,1.209072861292213,12.61849839555621,0.0344678908586502,-1.8119819164276123,0.2128868699073791,jumping
1783088640461825000,2.220824951171875,4.776911912222206,0.4156980855502188,11.436893240773678,0.1501695960760116,-1.4963284730911257,0.4220218360424042,jumping
1783088640471869200,2.230869140625,4.018986635524034,-0.3435816744968294,10.419011498248576,0.170312151312828,-1.0658401250839231,0.5765267014503479,jumping
1783088640481914400,2.240914306640625,2.97565422540009,-1.1636698312498628,9.558261514630914,0.1193749383091926,-0.5982010364532471,0.6373802423477173,jumping
1783088640491958000,2.2509580078125,2.0160697735428807,-2.242030007874221,8.466806001850962,0.0240476205945014,-0.0733559057116508,0.5757666826248169,jumping
1783088640502002200,2.261002197265625,1.324113052792847,-3.137390847754478,7.207420272773504,-0.0903113186359405,0.4958114326000213,0.4212733507156372,jumping
1783088640512046300,2.27104638671875,1.1653574920758605,-3.677703008836508,6.19469109070599,-0.1913279443979263,1.029800534248352,0.2230534851551056,jumping
1783088640522091300,2.28109130859375,1.5485837792187929,-3.766246384686231,5.764087843099236,-0.2584207355976105,1.5026930570602417,0.02676248177886,jumping
1783088640532135200,2.29113525390625,1.9148364274680616,-3.5316190059050916,5.493201110196114,-0.2854669988155365,1.8020602464675903,-0.1485350281000137,jumping
1783088640542179300,2.301179443359375,2.255140979990363,-3.1038027586683627,6.303194720044732,-0.3032341003417969,1.8421050310134888,-0.2682806551456451,jumping
1783088640552224300,2.311224365234375,2.378427167919278,-2.9027152459174395,7.633638437163829,-0.3366120159626007,1.7104096412658691,-0.3563125133514404,jumping
1783088640562268200,2.32126806640625,2.2508730934128165,-3.0300337581023573,8.844563209933042,-0.3951038420200348,1.494939208030701,-0.4160517752170563,jumping
1783088640572312300,2.331312255859375,2.2329095666989685,-2.7700615101844073,9.760481538543104,-0.455192506313324,1.1854737997055054,-0.4225805103778839,jumping
1783088640582357200,2.341357177734375,2.3681883902385827,-2.449051879110187,10.125049594706296,-0.4534534513950348,0.8990848660469055,-0.3834331035614013,jumping
1783088640592401200,2.351401123046875,2.5389859786659477,-1.9875173405364157,9.952871657836436,-0.3626487255096435,0.7013054490089417,-0.2950577139854431,jumping
1783088640602445000,2.361445068359375,2.661373171928525,-1.4347713759474456,9.849798236852884,-0.2474047392606735,0.4967005252838135,-0.1875824332237243,jumping
1783088640612490200,2.371490234375,2.7682421858027575,-0.7708971326045692,9.737446699914337,-0.1179612502455711,0.2135612368583679,-0.0338754318654537,jumping
1783088640622534400,2.381534423828125,3.208417271614074,0.1093698907792568,8.969587181439996,0.0558595433831214,-0.0696984454989433,0.2344449609518051,jumping
1783088640632578000,2.391578125,3.448455861788988,1.2994082351252436,7.707731262856721,0.1734708547592163,-0.3402617573738098,0.662510871887207,jumping
1783088640642622200,2.401622314453125,3.3388749586075543,2.342074290294945,6.551586128023266,0.1031183749437332,-0.6509268879890442,1.1372798681259155,jumping
1783088640652667400,2.41166748046875,3.033156858558953,2.7941680696979163,5.319865819984674,-0.1165215671062469,-0.8959305286407471,1.5268348455429075,jumping
1783088640662711000,2.4217109375,2.336672577381879,2.838580335137248,3.704564127755165,-0.3231810927391052,-0.8718196749687195,1.7724075317382812,jumping
1783088640672755200,2.431755126953125,0.3124040075533091,2.7114994311004876,1.2674918786436318,-0.3853366374969482,-0.498381644487381,1.808587908744812,jumping
1783088640682800400,2.44180029296875,-1.3115705282144248,2.2996745337218045,-1.434141407480836,-0.3096195161342621,0.1841024309396743,1.6595358848571775,jumping
1783088640692844000,2.451843994140625,-0.7069738187484442,2.2976512112006544,-3.7408050694376223,-0.2459587752819061,0.8939568400382996,1.5487478971481323,jumping
1783088640702888200,2.46188818359375,-1.6745669511467218,3.692633743725717,-8.696769188213349,-0.3364051580429077,2.2126359939575195,1.485085368156433,jumping
1783088640712933400,2.471933349609375,-5.169489380556345,3.699954880394041,-18.31461861784458,-0.5370916724205017,4.546661376953125,1.21290123462677,jumping
1783088640722977300,2.481977294921875,-6.459949462333321,-0.696928371682763,-26.194221528100964,-0.5649589896202087,6.726240158081055,0.4647373557090759,jumping
1783088640733021200,2.492021240234375,-3.5224686079829928,-3.550609537579119,-24.556412235987185,-0.2690165042877197,6.936550617218018,-0.2705180048942566,jumping
1783088640743066400,2.50206640625,0.1812087817992083,-0.0478843254640698,-17.51635811588764,0.2625470757484436,5.660680770874023,-0.7897480726242065,jumping
1783088640753110300,2.5121103515625,0.3595759104317054,2.5883511903375385,-15.352190369242429,0.7873362898826599,4.359615802764893,-1.1380293369293213,jumping
1783088640763154200,2.522154296875,-1.5423485380910336,2.1901354238554833,-15.24748730123043,1.017845630645752,2.980179786682129,-1.3380930423736572,jumping
1783088640773199400,2.532199462890625,-1.815728695245087,0.6266705941081047,-15.551432838648555,0.985284149646759,1.695654273033142,-1.5280508995056152,jumping
1783088640783243300,2.5422431640625,-0.8363374268949031,-0.5621212573081255,-17.414742492496966,0.8295400738716125,0.4142631888389587,-1.671841740608215,jumping
1783088640793287200,2.552287109375,1.072765936813876,-1.1481602735593914,-20.46873843320608,0.6231834292411804,-0.4298382401466369,-1.7135796546936035,jumping
1783088640803331000,2.5623310546875,2.9461490217134356,-0.3474094160914421,-21.95680023144483,0.4176869690418243,-1.165591835975647,-1.5474284887313845,jumping
1783088640813376300,2.572376220703125,3.581291091568768,1.0143865938857195,-21.032757633090014,0.3696970641613006,-1.766531467437744,-1.233134627342224,jumping
1783088640823420200,2.582420166015625,3.7067566693633793,2.430594869790971,-19.812584554982184,0.4492588639259338,-1.938921332359314,-0.8673531413078308,jumping
1783088640833464000,2.592464111328125,3.4688422317355867,3.6076480603575702,-16.979297065556047,0.3999727964401245,-1.8121542930603027,-0.5180577635765076,jumping
1783088640843509200,2.60250927734375,2.7697394386231897,2.926621314422786,-13.515969797849657,0.2314251959323883,-1.5298123359680176,-0.3172909319400787,jumping
1783088640853553400,2.612553466796875,1.418417476387322,1.9418451381638644,-9.24979528491795,-0.0209215655922889,-1.3672988414764404,-0.2535913288593292,jumping
1783088640863597000,2.62259716796875,0.0677498179082991,1.4397928573712706,-4.9725131025165314,-0.2980540096759796,-1.304800510406494,-0.1897616535425186,jumping
1783088640873642200,2.632642333984375,-0.8010733674205839,1.4013456378161906,-1.6815309449404476,-0.5496896505355835,-1.327407717704773,-0.0986194983124733,jumping
1783088640883686400,2.642686279296875,-0.6876347658976912,1.702090333366394,0.397033570960164,-0.7011045813560486,-1.4760568141937256,-0.0350507274270057,jumping
1783088640893730000,2.65272998046875,-0.1748349907172843,1.7728645360305904,1.4549679224103689,-0.649375855922699,-1.717300295829773,-0.0371570214629173,jumping
1783088640903775200,2.662775146484375,-0.0365644014831632,1.3803390901446342,2.4163380886405705,-0.3754475116729736,-2.010211229324341,-0.140256866812706,jumping
1783088640913819400,2.6728193359375,-0.1156157263662666,0.3806257492557168,3.8831338114887473,-0.0247430205345153,-2.3404064178466797,-0.3182271122932434,jumping
1783088640923863300,2.68286328125,-0.0396716467835009,-0.3984963369891047,6.173184776818752,0.2307426333427429,-2.659856081008911,-0.5079562664031982,jumping
1783088640933907200,2.6929072265625,0.4353862440995871,-1.2812909791544078,8.603750128254294,0.2597337961196899,-2.888702392578125,-0.7439655661582947,jumping
1783088640943952400,2.702952392578125,1.0276550946511327,-2.0776436016634103,10.392152717417478,0.0740976929664611,-2.975466728210449,-0.9860956072807312,jumping
1783088640953996300,2.712996337890625,1.3678376282289624,-1.9723118803590536,12.035856328266858,-0.2057360708713531,-2.969589948654175,-1.1372650861740112,jumping
1783088640964040200,2.723040283203125,1.703979508113861,-1.4321528640121222,13.618361666309832,-0.4615347385406494,-2.877721071243286,-1.1397085189819336,jumping
1783088640974085400,2.73308544921875,2.2999790696263314,-0.7783908493608236,14.493086983788013,-0.6172172427177429,-2.752136468887329,-0.989450216293335,jumping
1783088640984129300,2.74312939453125,2.841899834948778,-0.0491126982152462,14.528150113862752,-0.6521179676055908,-2.614661693572998,-0.7497606873512268,jumping
1783088640994173200,2.753173095703125,3.3856954542323945,0.2387774841979145,13.899709587472676,-0.5726929306983948,-2.5489580631256104,-0.4940940141677856,jumping
1783088641004218400,2.76321826171875,4.065724129040539,0.0530544215783476,12.747027744835616,-0.4055230915546417,-2.557583808898926,-0.2394955605268478,jumping
1783088641014262300,2.77326220703125,4.737183128423989,-0.2606763045340776,10.91936457390785,-0.0900314673781395,-2.4782235622406006,0.0271574296057224,jumping
1783088641024306200,2.78330615234375,4.673804881229996,-0.8350932720527052,8.941415564444661,0.3087482750415802,-2.199113130569458,0.2563683986663818,jumping
1783088641034351400,2.793351318359375,4.239717006377876,-1.5599235038787125,7.524767143556475,0.7017443180084229,-1.733432650566101,0.4123124778270721,jumping
1783088641044395300,2.803395263671875,3.436823291662335,-2.2118130026564,6.6004392985194915,0.9258479475975036,-1.1461409330368042,0.5005142092704773,jumping
1783088641054439400,2.813439453125,2.818955304951966,-2.565151808796823,6.1598430646866555,0.8813934326171875,-0.4833816289901733,0.5094419717788696,jumping
1783088641064483000,2.823483154296875,2.7220351459011436,-2.850972783720493,5.960188507348299,0.619857907295227,0.1769939363002777,0.4562636613845825,jumping
1783088641074528300,2.8335283203125,2.986941635350883,-2.8746950200915333,6.090788817682862,0.2783650159835815,0.7264048457145691,0.3725200295448303,jumping
1783088641084572400,2.843572509765625,3.4179318364486098,-2.718464886198938,6.59941696973443,-0.0197416469454765,1.0751932859420776,0.2919823825359344,jumping
1783088641094616000,2.853615966796875,3.7446152753755446,-2.545451375287771,7.36164461980164,-0.2286181598901748,1.249049186706543,0.2314442098140716,jumping
1783088641104661200,2.8636611328125,3.807635502912104,-2.6477123108446596,8.148884546050429,-0.3514801263809204,1.3314778804779053,0.1752086728811264,jumping
1783088641114705400,2.873705322265625,3.798537127438187,-2.831483654874563,8.73805689189136,-0.4125373363494873,1.3985520601272583,0.1373033672571182,jumping
1783088641124749000,2.8837490234375,3.975633816009759,-2.670612417177856,9.125891257351636,-0.4051381051540375,1.4308491945266724,0.1547751724720001,jumping
1783088641134794200,2.893794189453125,4.3070089198842645,-2.44126473236531,9.113060417351129,-0.2844210267066955,1.4704935550689695,0.2047592550516128,jumping
1783088641144838400,2.90383837890625,4.376896695102751,-2.299451830881834,8.684225348460673,-0.0783798396587371,1.5518064498901367,0.2606929838657379,jumping
1783088641154882300,2.91388232421875,4.379763774971663,-2.1674118431329727,8.506775024145842,0.1385876387357711,1.6309561729431152,0.3269010484218597,jumping
1783088641164927200,2.92392724609375,4.016948407694697,-1.7270529251873492,8.633304724040627,0.2582310438156128,1.660749077796936,0.405982106924057,jumping
1783088641174971400,2.933971435546875,3.953390712280571,-1.5164105253666638,9.122600983634593,0.2451874017715454,1.5128616094589231,0.4631857275962829,jumping
1783088641185015300,2.944015380859375,4.112630549383163,-1.3668857343316076,9.326448316487667,0.1610661000013351,1.2706592082977295,0.5124989151954651,jumping
1783088641195059200,2.95405908203125,3.3792423325702545,-0.5405588293194771,8.673441504117847,0.1041418313980102,1.018393874168396,0.5615077614784241,jumping
1783088641205104400,2.9641044921875,1.650508760819584,0.5820195514768361,7.712361845266819,0.0227367002516984,0.9132498502731324,0.6119413375854492,jumping
1783088641215148300,2.974148193359375,0.0141707103021442,1.2211141583502292,6.591921645542979,-0.1134600192308425,0.9250383377075196,0.6048759818077087,jumping
1783088641225192200,2.984192138671875,0.173348441953957,2.063913474735618,5.109144509708881,-0.2012227177619934,0.986052930355072,0.6532093286514282,jumping
1783088641235237400,2.9942373046875,0.1469990719497203,4.207373364394903,2.625644855943322,-0.1343909651041031,1.0823887586593628,0.9460955262184144,jumping
1783088641245281300,3.00428125,-0.9904904622524976,4.908503279420733,0.8307990819901228,0.0082246894016861,1.0669220685958862,1.3099794387817385,jumping
1783088641255325400,3.014325439453125,-1.0000016563110052,4.449831290671229,-1.004402667748928,0.0874390825629234,0.9762284755706788,1.7035826444625854,jumping
1783088641265370000,3.0243701171875,-0.5365788197726011,5.839958199858665,-6.238005331775546,-0.0932224616408348,1.6394494771957395,2.2923691272735596,jumping
1783088641275414300,3.034414306640625,-0.6991629988670349,8.065366304886341,-18.120664902496337,-0.65771484375,3.554771661758423,2.730841636657715,jumping
1783088641285458400,3.04445849609375,-3.8785882770136,1.0414031956270335,-29.16339866644144,-1.0063852071762085,5.613449573516846,2.0236687660217285,jumping
1783088641295503000,3.054503173828125,-6.246703017494082,-6.663383538210391,-28.76536497852802,-0.7583986520767212,5.787298202514648,1.009901762008667,jumping
1783088641305547300,3.06454736328125,-2.910552515414357,-5.093086524355411,-20.95216375494003,0.0985750034451484,4.393303871154785,0.3881506025791168,jumping
1783088641315591400,3.07459130859375,-0.881408302373439,0.8892042169466614,-15.763241359639167,0.9129451513290404,2.7722439765930176,-0.1190050244331359,jumping
1783088641325635000,3.084635009765625,-2.4105935536392034,1.9116434766456485,-16.511506535327435,1.064859390258789,1.494931697845459,-0.7024431228637695,jumping
1783088641335680300,3.09468017578125,-1.877404522435367,-0.3310392960488796,-19.670849687170985,1.1057652235031128,0.5825342535972595,-1.1840598583221436,jumping
1783088641345724400,3.104724365234375,-1.2943912837460636,0.6243935890868306,-21.401527817118165,1.0689529180526731,-0.2076048254966735,-1.4102535247802734,jumping
1783088641355768300,3.114768310546875,-1.0203964287597684,1.8328674615725873,-23.433646223664283,0.7944589853286743,-0.7463913559913635,-1.2781925201416016,jumping
1783088641365813200,3.124813232421875,-0.3420066071998328,1.901958825716376,-24.71035893511772,0.6091755628585815,-1.5672780275344849,-0.9644221663475036,jumping
1783088641375857400,3.134857421875,-0.537304869024828,0.576352027234435,-19.59858173881769,0.5786703824996948,-2.458024740219116,-0.8570429682731628,jumping
1783088641385901300,3.1449013671875,0.300390055159945,1.3486600495502352,-19.11788028908968,0.4904924631118774,-2.9189932346343994,-0.6628329157829285,jumping
1783088641395946200,3.1549462890625,1.1868225241046395,3.9351559674099086,-17.017331904917956,0.5444912314414978,-3.098881959915161,-0.168039932847023,jumping
1783088641405990400,3.164990478515625,1.373313137030601,4.902460492125154,-14.692682504415512,0.7059923410415649,-2.8317716121673584,0.2267705351114273,jumping
1783088641416034300,3.175034423828125,0.734250971122086,3.258251269841194,-12.054742230522631,0.8870704770088196,-2.3225343227386475,0.2999715209007263,jumping
1783088641426078200,3.185078125,-0.3021200024913996,2.2318841691739855,-7.405317757311463,0.9341579079627992,-1.8548883199691772,0.2413577884435653,jumping
1783088641436123100,3.195123046875,-0.2145673912446945,1.837410511829704,-3.0997020453512665,0.7404619455337524,-1.572611927986145,0.2372240275144577,jumping
1783088641446167300,3.205167236328125,0.2204956122498959,1.5788210965722798,-0.5539063866704702,0.3528056442737579,-1.39609956741333,0.2971873581409454,jumping
1783088641456211500,3.21521142578125,0.3520635255075991,1.405570123643428,1.1446633713543417,-0.056887075304985,-1.3227907419204712,0.3357997238636017,jumping
1783088641466256100,3.225256103515625,0.6648565323784947,1.2509443562075495,2.9516578482627867,-0.3904843628406524,-1.4951530694961548,0.3155193030834198,jumping
1783088641476300300,3.23530029296875,1.2405569638364016,-0.1329259768031537,4.867978376808762,-0.5131762027740479,-1.8556760549545288,0.1049399748444557,jumping
1783088641486344400,3.245344482421875,2.0479066350474953,-1.5619516487054526,6.3928264756530515,-0.4331762194633484,-2.012157678604126,-0.1723760664463043,jumping
1783088641496389000,3.25538916015625,2.1905333371318876,-1.291583825109899,7.225745618537068,-0.3023644089698791,-2.201777696609497,-0.4778270423412323,jumping
1783088641506433300,3.265433349609375,2.9723671665534375,-1.3998206202059984,8.890088112789392,-0.1712778061628341,-2.3877854347229004,-0.8391472101211548,jumping
1783088641516477400,3.2754775390625,3.6787107245743274,-0.9249196734502912,10.077394694083928,-0.0959660038352012,-2.350794792175293,-1.0851541757583618,jumping
1783088641526522000,3.285522216796875,4.009877738656104,0.3031017800703645,12.038457450675963,-0.1390623599290847,-2.311336040496826,-1.0917024612426758,jumping
1783088641536566300,3.295566162109375,4.566679554507136,1.9149311200141903,13.46228730750084,-0.2405972331762313,-2.287383556365967,-0.8766051530838013,jumping
1783088641546610400,3.3056103515625,4.635110993437468,2.213122331689298,15.75199048230648,-0.2171595692634582,-2.1866257190704346,-0.5665815472602844,jumping
1783088641556655000,3.315655029296875,4.27286933439523,2.0747008262097832,15.144895526283978,-0.1489136666059494,-1.853229522705078,-0.2587579190731048,jumping
1783088641566699300,3.32569921875,4.571116075649857,1.8541726999297736,14.032088597917555,-0.0369392670691013,-1.5313096046447754,0.0082617253065109,jumping
1783088641576743200,3.3357431640625,4.559971873562038,0.8355800326563417,12.9793939006865,0.0760951414704322,-1.2067656517028809,0.2047950327396392,jumping
1783088641586787300,3.345787353515625,4.5501510290324685,-0.3038105128616094,11.511260791754722,0.1448134034872055,-0.865044355392456,0.3660525679588318,jumping
1783088641596832300,3.355832275390625,4.348761318464577,-1.3956680305711924,10.002146853137017,0.1584216356277465,-0.4423471987247467,0.4895787537097931,jumping
1783088641606876200,3.365876220703125,4.043112484259903,-2.447111704827845,8.454048811608553,0.1479948908090591,0.0525215491652488,0.5313449501991272,jumping
1783088641616920300,3.37592041015625,3.6655849932804703,-3.4965082372963425,7.177931143438816,0.0990702286362648,0.5459799766540527,0.4344154298305511,jumping
1783088641626965200,3.38596533203125,3.160361096714437,-4.299940881194174,6.219055716633797,-0.021186402067542,0.9693690538406372,0.1992615163326263,jumping
1783088641637009200,3.396009033203125,2.6204449492126702,-4.291199064072966,5.772148984479903,-0.1332689970731735,1.3619920015335083,-0.0442624688148498,jumping
1783088641647053300,3.40605322265625,2.255159392429888,-3.4640026827499266,6.028180093556642,-0.2341797351837158,1.5943806171417236,-0.1963431686162948,jumping
1783088641657098200,3.41609814453125,2.2654230122908947,-2.8084461858972904,6.8769228285163635,-0.2704503834247589,1.6039574146270752,-0.2549052834510803,jumping
1783088641667142100,3.42614208984375,2.5024896009176967,-2.6431621001943943,7.787320932400226,-0.245390847325325,1.4916812181472778,-0.2682043015956878,jumping
1783088641677186300,3.436186279296875,2.6644886736005544,-2.558622114767134,8.416502632546424,-0.2223086953163147,1.3168236017227173,-0.2592859268188476,jumping
1783088641687230500,3.44623046875,2.796773868282139,-2.5123747428551315,9.065991792184114,-0.2403442114591598,1.085504174232483,-0.220525786280632,jumping
1783088641697275100,3.456275146484375,2.9931419512957333,-2.6096575977385044,9.381908337903022,-0.25459024310112,0.8078307509422302,-0.136335015296936,jumping
1783088641707319300,3.4663193359375,3.0721111508533356,-2.7284190017193555,8.992692747217417,-0.2105511277914047,0.6276055574417114,-0.066492810845375,jumping
1783088641717363500,3.476363525390625,3.0678081929624077,-2.63745395168066,8.492897889962792,-0.1676281690597534,0.5615991353988647,-0.0364275798201561,jumping
1783088641727408000,3.486408203125,3.092808194184303,-2.359761630415916,8.552386436241864,-0.1454586535692215,0.4890572428703308,-0.0388675294816494,jumping
1783088641737452300,3.496452392578125,3.079406860819459,-1.843108869601786,8.826207469031214,-0.1530736982822418,0.3635680377483368,-0.0196213964372873,jumping
1783088641747496200,3.50649609375,3.095488519309461,-0.903683116415143,8.790468631651997,-0.1786569952964782,0.2220671772956848,0.1083555668592453,jumping
1783088641757541000,3.516541015625,3.4275554048404095,0.4801607669800519,8.328412845683097,-0.0858346447348594,0.0760689526796341,0.3848153948783874,jumping
1783088641767585300,3.526585205078125,3.633589141821861,1.551138432137668,7.742095889273285,0.1342197656631469,0.0094777913764119,0.718372106552124,jumping
1783088641777629200,3.536629150390625,3.400098950377106,2.4297414678320286,7.275541038319468,0.2532071471214294,-0.0237507354468107,1.0376931428909302,jumping
1783088641787674000,3.546674072265625,2.8714290040329096,3.2456060155406594,6.466525333592295,0.1555443555116653,0.0251747369766235,1.396616816520691,jumping
1783088641797718300,3.55671826171875,2.247320661628246,4.003984296703338,5.083637728008628,-0.0483107678592205,0.2040270417928695,1.708770751953125,jumping
1783088641807762200,3.56676220703125,1.2254384512901306,3.955925491455197,3.5156530827492474,-0.1974786221981048,0.3846683502197265,1.834007978439331,jumping
1783088641817806300,3.576806396484375,-1.047265511789173,3.1218668231472373,1.2781868756592274,-0.27692312002182,0.6127393841743469,1.784443736076355,jumping
1783088641827851300,3.586851318359375,-1.9567985232762992,2.189781788112223,-1.4065776932507752,-0.353748619556427,0.8318716287612915,1.608429789543152,jumping
1783088641837895200,3.596895263671875,-1.274193275978416,2.7496295475304127,-4.537937444147468,-0.4624362289905548,1.169932842254639,1.548038363456726,jumping
1783088641847939300,3.606939208984375,-2.839307480368018,4.56034070687443,-10.528671311885118,-0.6711797714233398,2.204824686050415,1.6010369062423706,jumping
1783088641857984300,3.616984375,-4.996337630218267,2.9235008443146944,-18.60032122708559,-0.758064329624176,3.758811712265014,1.2903900146484375,jumping
1783088641868028200,3.627028076171875,-4.390852739740908,-2.2745590894266963,-23.40879235291481,-0.4955934882164001,4.514039039611816,0.5424416661262512,jumping
1783088641878072300,3.637072265625,-1.9365289115771651,-3.7512171578586098,-20.902806726574894,0.0586041882634162,3.8828444480896,-0.1919683963060379,jumping
1783088641888117200,3.6471171875,-0.3791105954524129,-1.9904767748638987,-16.88393465734124,0.5243105888366699,2.705155611038208,-0.809990406036377,jumping
1783088641898161200,3.6571611328125,-1.9121866436116397,-1.1656237417966129,-16.107218463194368,0.7070689797401428,1.618064522743225,-1.2410863637924194,jumping
1783088641908205300,3.667205322265625,-3.375037866617739,-0.311608911652863,-16.881224813860655,0.7219381332397461,1.0501928329467771,-1.463176965713501,jumping
1783088641918249200,3.677249267578125,-3.126003776821494,0.4190583557635545,-18.212201030421255,0.7297928333282471,0.737272322177887,-1.5614612102508545,jumping
1783088641928294100,3.687294189453125,-1.7025078281261026,1.630749728991091,-19.597747041559217,0.6837348937988281,0.6388150453567505,-1.612631916999817,jumping
1783088641938338300,3.69733837890625,-0.3015710816380568,2.33176127833426,-20.44928320662975,0.5180303454399109,0.5052114725112915,-1.5341928005218506,jumping
1783088641948382500,3.707382568359375,0.9923615168213844,1.617256917950511,-20.242282962703705,0.3460855484008789,0.2306685149669647,-1.3722290992736816,jumping
1783088641958427400,3.717427490234375,1.636801137984544,0.9239674872919916,-18.855175109076495,0.3027223646640777,-0.1922734230756759,-1.2024662494659424,jumping
1783088641968471600,3.727471435546875,1.5684917179986833,1.20773123742491,-17.718757003498077,0.3131906986236572,-0.4015730619430542,-0.9005386233329773,jumping
1783088641978515500,3.737515380859375,2.1062810826048253,2.6171537987127897,-17.117558704298734,0.3422631025314331,-0.3526827394962311,-0.5580169558525085,jumping
1783088641988560400,3.747560302734375,2.9474948833644388,3.2183702180907128,-14.817014986526964,0.2960310876369476,-0.3378345072269439,-0.2336461246013641,jumping
1783088641998604500,3.7576044921875,2.8779487611904737,3.075579411485791,-11.96878711760044,0.1309939324855804,-0.3671042323112488,0.0295988377183675,jumping
1783088642008648400,3.7676484375,1.4000592512674628,2.676522225743532,-8.963403524369001,-0.1159811317920684,-0.4072536826133728,0.1738021820783615,jumping
1783088642018693400,3.777693359375,-0.522269175923802,2.095871040010452,-5.963152617850899,-0.3717988133430481,-0.4565778374671936,0.1919614821672439,jumping
1783088642028737500,3.787737548828125,-1.5891094124831258,1.579173563271761,-3.2662890303462744,-0.5342327356338501,-0.5749387145042419,0.0973638072609901,jumping
1783088642038781400,3.797781494140625,-1.2886939488872884,1.260653849317133,-0.8119061654716729,-0.5637109875679016,-0.7588204145431519,-0.0607832111418247,jumping
1783088642048825600,3.80782568359375,-0.5598983570942655,1.4633911751016973,1.1737316449284554,-0.4931901097297668,-0.9695350527763368,-0.212639719247818,jumping
1783088642058870500,3.81787060546875,0.1320266168106347,1.5308897170960902,3.2330525311768055,-0.3508694469928741,-1.1397669315338137,-0.3957139253616333,jumping
1783088642068914400,3.82791455078125,0.3985448523059487,1.2908461584851143,5.381746814358234,-0.126588299870491,-1.164905309677124,-0.6099038124084473,jumping
1783088642078958600,3.83795849609375,0.3848310919910669,0.8653323429718613,7.594379608964919,0.130618467926979,-1.0726635456085205,-0.8154734969139099,jumping
1783088642089003500,3.84800341796875,0.5855932452451438,0.8761135569661855,9.442789215323328,0.3010622560977936,-0.7938247323036194,-0.9502865672111512,jumping
1783088642099047400,3.85804736328125,0.5994217910461127,0.7665601263135671,11.274817011201382,0.3757729828357696,-0.6029676795005798,-1.0346180200576782,jumping
1783088642109091600,3.868091552734375,0.4365394327227025,0.3569333235010504,13.16220312168598,0.3501880466938019,-0.4195080101490021,-1.0704454183578491,jumping
1783088642119136500,3.878136474609375,0.6486730209492146,0.3268824686303734,14.107531669175623,0.2642020285129547,-0.3387281894683838,-1.0418363809585571,jumping
1783088642129180400,3.888180419921875,0.8473322836399078,-0.0144224931061267,14.861341619509458,0.1709299683570861,-0.2952125966548919,-0.932933270931244,jumping
1783088642139224600,3.898224609375,1.021281760226935,-0.6604702801182866,14.66866566901207,0.0735267177224159,-0.2775779366493225,-0.7987229824066162,jumping
1783088642149268500,3.9082685546875,1.4514458857640624,-1.788070580729842,13.962551535832882,0.0414785370230674,-0.2091289013624191,-0.7034276723861694,jumping
1783088642159313400,3.9183134765625,1.6382891845852137,-2.647700620406866,13.180533728146552,0.0961020961403846,-0.0467221476137638,-0.6675103902816772,jumping
1783088642169357600,3.928357666015625,1.4176437155358492,-2.9088807828098533,12.428854944622516,0.1647445559501648,0.2000053226947784,-0.6120936870574951,jumping
1783088642179401500,3.9384013671875,0.9566001753494144,-2.8436031317353248,11.73068212583661,0.1639557182788849,0.4465040266513824,-0.5108762979507446,jumping
1783088642189446400,3.9484462890625,0.8927433508582413,-3.2760686660826206,10.943545075440406,0.037217054516077,0.54472815990448,-0.4184431731700897,jumping
1783088642199490600,3.958490478515625,1.408196088232845,-3.6057734986573458,10.022083725750443,-0.2027782350778579,0.4670448303222656,-0.3520478904247284,jumping
1783088642209534500,3.968534423828125,2.119095848253369,-3.5075244290903207,8.65191473196447,-0.5184773206710815,0.3104665875434875,-0.226554125547409,jumping
1783088642219579400,3.978579345703125,2.47131938662827,-2.731808936418593,6.966597838744521,-0.7607532739639282,0.2100337296724319,-0.0133307967334985,jumping
1783088642229623600,3.98862353515625,2.865689875859022,-2.8788913027375935,4.708703760653734,-0.8152115941047668,0.1316184997558593,0.1852458119392395,jumping
1783088642239667500,3.99866748046875,2.8477772025495764,-2.9518396345704794,4.689429735863208,-0.6369441151618958,0.0998376682400703,0.3478376567363739,jumping
1783088642249711600,4.008711669921875,2.6540485281288624,-2.621465232171118,4.22360436822772,-0.2378375083208084,0.1087925657629966,0.5017388463020325,jumping
1783088642259755500,4.018755615234375,2.5099969078078863,-1.7439669428482651,5.070418765473366,0.2292772233486175,-0.0062376176938414,0.7183113098144531,jumping
1783088642269800400,4.028800537109375,2.259782960577309,-1.4698366979792714,6.717465257009864,0.6380084753036499,-0.1760866641998291,0.9518252015113832,jumping
1783088642279844600,4.0388447265625,1.7465569593414665,-1.761702213764191,8.447273618385195,0.9400402307510376,-0.432968258857727,1.1174473762512207,jumping
1783088642289888300,4.04888818359375,1.291781101247668,-2.2760466976359486,10.122420415246486,1.0722675323486328,-0.7308512330055237,1.1658706665039062,jumping
1783088642299932400,4.058932373046875,0.88602222590968,-2.934282642830908,10.98421377043724,0.9938204288482666,-0.9452751278877258,1.104095697402954,jumping
1783088642309977600,4.0689775390625,0.510546406763047,-3.113930184929073,11.359820522487162,0.7452664971351624,-1.0588581562042236,0.9842411875724792,jumping
1783088642320021500,4.079021484375,0.3969217811487615,-2.232942007663846,11.082419293123484,0.3818033337593078,-0.9926010370254515,0.9497157335281372,jumping
1783088642330065400,4.0890654296875,0.6822204857639969,-0.5432356473132968,10.211370618331433,0.0777083933353424,-0.9354699850082396,0.9925808906555176,jumping
1783088642340110600,4.099110595703125,1.4720288011960685,0.8549065182864666,9.514542784413695,-0.0622686855494976,-0.9721038937568665,1.084261775016785,jumping
1783088642350154500,4.109154541015625,1.651591441489756,2.107891732671857,8.442570555260778,-0.0566498264670372,-1.0800410509109497,1.1586191654205322,jumping
1783088642360198400,4.119198486328125,1.4042960120543837,2.8490923768013716,7.248470076042413,-0.0374558940529823,-1.3445075750350952,1.196488857269287,jumping
1783088642370243600,4.12924365234375,0.7725725184708834,2.84786429631114,5.7348898056656115,-0.0387886352837085,-1.6930266618728638,1.2064982652664185,jumping
1783088642380287500,4.13928759765625,0.2135796223163604,1.995670544114709,4.091592437529564,-0.0244118254631757,-1.99982488155365,1.2274134159088137,jumping
1783088642390331400,4.149331298828125,-0.4336569360889494,1.2747569012105464,2.3893530510812995,0.0297234766185283,-2.2462000846862793,1.213914155960083,jumping
1783088642400375600,4.15937548828125,-1.030739616663009,1.3175082477003337,0.2066840175837278,0.1093962043523788,-2.4020028114318848,1.376705288887024,jumping
1783088642410420500,4.16942041015625,-1.5723179982885718,3.3520302082568407,-3.2351620706766844,0.1578462719917297,-2.115954875946045,1.7772921323776243,jumping
1783088642420464600,4.179464599609375,-1.0233552055001258,4.743108426819742,-8.500034317713975,-0.0251331385225057,-0.9125743508338928,2.198893785476685,jumping
1783088642430508300,4.18950830078125,-2.260005517286807,5.529197721728682,-19.27815619124174,-0.8599938154220581,2.155391216278076,2.450601100921631,jumping
1783088642440553500,4.199553466796875,-5.804367246517539,0.5932853341177106,-31.396246566081047,-1.7564632892608645,5.177021026611328,1.9880095720291135,jumping
1783088642450597600,4.20959765625,-8.179155181151629,-5.078222132700682,-28.05198406921625,-1.5026819705963137,5.815207481384277,1.2706748247146606,jumping
1783088642460641300,4.219641357421875,-6.074096041557192,-4.264612962703406,-19.01978348747492,-0.4317920804023742,4.763948440551758,0.8603329062461853,jumping
1783088642470686500,4.2296865234375,-2.0602926538899538,-0.8959352787673472,-12.180900759017469,0.5606909990310669,3.2315452098846436,0.7244881987571716,jumping
1783088642480730600,4.239730712890625,0.5170541812218725,3.650365504577756,-8.763743706333637,0.87336665391922,1.8369325399398804,0.7117460370063782,jumping
1783088642490774300,4.249774169921875,0.3545896464517339,6.0757788800776,-7.614323495841026,0.5929430723190308,0.8642875552177429,0.7315688133239746,jumping
1783088642500818400,4.259818359375,-1.1438298431396483,3.8767660300225018,-8.937877453446388,0.2222222983837127,0.293994277715683,0.4973156154155731,jumping
1783088642510863600,4.269863525390625,-3.035510143686831,0.0770101744443178,-10.643415296918151,0.0813743397593498,-0.3635910451412201,0.0330762974917888,jumping
1783088642520907500,4.279907470703125,-3.3087694509401917,-1.157476967959106,-11.142772347277402,0.1308982223272323,-1.1823025941848757,-0.4222310483455658,jumping
1783088642530951400,4.289951416015625,-2.2969394096694886,-1.0995526022568345,-11.748574340879916,0.1823282837867736,-1.745654821395874,-0.7164108753204346,jumping
1783088642540996600,4.29999658203125,-1.4783721788734197,0.4312810007378458,-13.26022978067398,0.1100279912352562,-1.8554030656814575,-0.7826324701309204,jumping
1783088642551040500,4.31004052734375,-0.6533228925816714,2.7465280743837357,-14.70208161640167,-0.0140650924295187,-1.4645169973373413,-0.635119616985321,jumping
1783088642561084400,4.32008447265625,0.2999784604180604,4.437256763519346,-16.320842509174344,-0.1514716893434524,-0.664216935634613,-0.3949232697486877,jumping
1783088642571129600,4.330129638671875,0.7305264707062393,4.741522034411132,-16.897184599536658,-0.3012139499187469,0.1111958101391792,-0.2189673036336898,jumping
1783088642581173500,4.340173583984375,0.0183040107145905,3.7519422572627663,-14.951498275774716,-0.4066631495952606,0.5675780177116394,-0.1188854426145553,jumping
1783088642591217400,4.350217529296875,-1.3487727161444725,2.827325366151333,-12.308214302766322,-0.4912638664245605,0.7965359687805176,-0.0621735230088233,jumping
1783088642601262600,4.3602626953125,-1.7236238275215028,1.6298507343247532,-9.514621110346912,-0.5736922025680542,0.8197813630104065,-0.1007933542132377,jumping
1783088642611306500,4.370306396484375,-0.9823702841609716,0.9229732155576348,-8.279995143994688,-0.612765908241272,0.6748009920120239,-0.2244304418563842,jumping
1783088642621350400,4.380350341796875,-0.4012894017737358,0.3324623145893216,-7.315667297002673,-0.5820279717445374,0.449606716632843,-0.4458142220973968,jumping
1783088642631395600,4.3903955078125,0.3375808266468346,1.203085749706626,-4.4388218208789825,-0.4755450189113617,0.0656831562519073,-0.5759257078170776,jumping
1783088642641439500,4.400439453125,1.4322878885686396,1.4073229586601257,-1.5894757615774868,-0.3625236451625824,-0.4118328094482422,-0.6057525873184204,jumping
1783088642651483600,4.410483642578125,1.8630597707405685,1.548417482741177,0.3520359068483114,-0.1445681154727935,-0.5448551177978516,-0.5479518175125122,jumping
1783088642661527300,4.42052734375,2.1732323659799992,1.6566414183557032,2.223381567636132,0.1400913149118423,-0.5062988996505737,-0.4606659114360809,jumping
1783088642671572500,4.430572509765625,1.8781274298824369,0.8744225351393222,3.6963591939896343,0.3970641791820526,-0.2584609687328338,-0.3940345048904419,jumping
1783088642681616600,4.44061669921875,0.8056004894562065,-0.2359364155530929,5.87752951336205,0.5229131579399109,0.0758839771151542,-0.3746219277381897,jumping
1783088642691660300,4.450660400390625,-0.5104406813662499,-1.3174597323834896,9.156182935240864,0.537493109703064,0.2991761267185211,-0.4475468397140503,jumping
1783088642701705500,4.46070556640625,-0.9929964537240564,-2.276774719649554,12.695034522747992,0.3947050273418426,0.2886891365051269,-0.6214331388473511,jumping
1783088642711749600,4.47074951171875,-0.8533014942426234,-2.8985113644868132,15.672151806437968,0.0802857130765914,0.0281592905521392,-0.8149239420890808,jumping
1783088642721793500,4.48079345703125,-1.0579553211729973,-2.8211560298666356,16.784415129446984,-0.2929528653621673,-0.2848960757255554,-0.8862660527229309,jumping
1783088642731838500,4.49083837890625,-0.6104625327594578,-2.500769937518239,15.791747323155402,-0.4876541197299957,-0.5510631799697876,-0.9218242168426514,jumping
1783088642741882600,4.500882568359375,-0.2141422246351838,-1.6112603078842165,13.812612318778037,-0.4033216536045074,-0.6669669151306152,-0.9328119158744812,jumping
1783088642751926500,4.510926513671875,0.131442752508074,-0.7959037096977234,11.75530101878643,-0.1874620020389557,-0.603983998298645,-0.8974120020866394,jumping
1783088642761970400,4.520970458984375,0.3519976206645369,-0.8365808802619576,10.269331808912751,0.0077668824233114,-0.3678985238075256,-0.8045667409896851,jumping
1783088642772015600,4.531015625,0.6816752729713916,-1.4325933012560008,9.518593521109224,0.1227706372737884,-0.1148496270179748,-0.73027503490448,jumping
1783088642782059500,4.5410595703125,0.9601262305837124,-1.9603566541492936,8.66800720410943,0.1383125782012939,0.1078934371471405,-0.6821783185005188,jumping
1783088642792103400,4.551103515625,1.2128947576679288,-2.3827046991080043,7.487939341896772,0.1567246615886688,0.432530790567398,-0.6150612831115723,jumping
1783088642802148600,4.561148681640625,1.3881952104724944,-2.762871306419372,6.681157095310091,0.1806252002716064,0.8007540702819824,-0.5235660076141357,jumping
1783088642812192500,4.571192626953125,1.4771644105188548,-3.1034324640512465,6.505971793317794,0.1708081513643264,1.0668545961380005,-0.4154154062271118,jumping
1783088642822236400,4.581236328125,1.710458641000092,-3.5748385544285175,6.817498579645156,0.1272161900997162,1.1800299882888794,-0.3454315364360809,jumping
1783088642832281600,4.591281494140625,1.900295860940218,-3.53695685980171,7.216871407207846,0.0710595995187759,1.1254197359085083,-0.2865651249885559,jumping
1783088642842325500,4.601325439453125,1.5756686238907276,-3.1856136113926765,7.440736276695132,0.038995411247015,0.9323554635047911,-0.2358931750059127,jumping
1783088642852369700,4.61136962890625,0.9484990672845393,-3.177032245530188,7.581593192628025,0.0823494791984558,0.672926127910614,-0.1780635118484497,jumping
1783088642862413300,4.621413330078125,0.6551840102784335,-3.5220588581383225,8.13595725993812,0.1940661519765854,0.3787320554256439,-0.149514690041542,jumping
1783088642872458500,4.63145849609375,0.4235841626249254,-3.717626730684936,8.902730152219533,0.3152938485145569,0.0991703122854232,-0.1702616810798645,jumping
1783088642882502700,4.641502685546875,0.3436681837365031,-3.666559975792467,9.69075859849751,0.4005946516990661,-0.1387018859386444,-0.1871309429407119,jumping
1783088642892546300,4.65154638671875,0.6805199654564261,-3.319104674732685,10.464543415367602,0.4032294750213623,-0.3809966444969177,-0.1770035624504089,jumping
1783088642902591500,4.661591552734375,1.0739031241502612,-2.7192539907500146,10.775679741072654,0.3161278665065765,-0.6435888409614563,-0.141788050532341,jumping
1783088642912635600,4.6716357421875,1.232900603864342,-1.7555439833953976,10.823162792259454,0.2043568789958953,-0.9060471653938292,-0.0702566057443618,jumping
1783088642922679600,4.681679443359375,1.4602952549129724,-0.917674232366681,10.705813008642195,0.1280868798494339,-1.2051103115081787,0.0173344928771257,jumping
1783088642932724500,4.691724365234375,1.169714737437293,-0.2035223386824131,9.830936884516476,0.065636470913887,-1.418294072151184,0.1863205283880233,jumping
1783088642942768600,4.7017685546875,1.0157548134990035,0.195456228865683,9.116458243095874,0.0378399938344955,-1.5717434883117676,0.3369001746177673,jumping
1783088642952812300,4.711812255859375,1.108213316965848,0.4382593153178691,8.567432029682397,0.0676140189170837,-1.670305848121643,0.4762776494026184,jumping
1783088642962856200,4.721856201171875,1.1808999291226268,0.9007461861804128,8.189063996225595,0.1298417150974273,-1.8409487009048464,0.575233519077301,jumping
1783088642972901400,4.7319013671875,1.7053617562524974,1.274698156760633,6.896523016521334,0.1275351494550705,-2.0313453674316406,0.5971718430519104,jumping
1783088642982945300,4.7419453125,1.9415654444396495,1.1168094420060517,6.200871240645647,0.2340346872806549,-2.205922365188598,0.5944207906723022,jumping
1783088642992989200,4.7519892578125,2.018971340203285,1.6447423062473534,4.751936168658733,0.272634357213974,-2.488072633743286,0.6609911322593689,jumping
1783088643003034400,4.762034423828125,1.0484025529950856,2.2218384298473595,2.4592712214380503,0.2568572461605072,-2.7572638988494873,0.8284661173820496,jumping
1783088643013078300,4.772078369140625,-1.4911284923329948,2.5291966983184215,0.0398673154860734,0.1801043003797531,-2.896228551864624,1.0693601369857788,jumping
1783088643023122400,4.782122314453125,-3.0616505471155047,2.9122920525580644,-3.504123972997069,0.0367908217012882,-2.4577839374542236,1.3185052871704102,jumping
1783088643033167400,4.79216748046875,-2.002772192813456,5.515532184469699,-9.183107767045495,-0.106227308511734,-1.2540971040725708,1.866214156150818,jumping
1783088643043211300,4.802211181640625,-2.5479496218442916,10.84120698299408,-19.7828627859354,-0.4168123602867126,1.3804941177368164,2.8394477367401123,jumping
1783088643053255400,4.81225537109375,-5.10161177611649,5.35685787229538,-30.23316724807024,-0.9619943499565125,4.876137733459473,3.046928882598877,jumping
1783088643063299000,4.822299072265625,-7.642115173608064,-3.625721477186679,-24.98287239243984,-0.9158481359481812,6.2019195556640625,2.288923978805542,jumping
1783088643073344300,4.83234423828125,-5.369311695677042,-3.0337761595010755,-14.226591763842103,-0.0652170628309249,5.230535507202148,1.4615614414215088,jumping
1783088643083388400,4.842388427734375,-3.189663763566315,-1.0194418314486742,-10.931364808303115,0.8423794507980347,3.7294108867645264,0.9187005162239076,jumping
1783088643093432000,4.85243212890625,-2.2804225746326146,0.4313771545886993,-9.808501765346527,1.34113609790802,2.1448962688446045,0.4351977109909057,jumping
1783088643103477200,4.862477294921875,-1.5641836455412208,2.226867071664333,-10.802892742168902,1.1729042530059814,0.8072582483291626,0.0335704013705253,jumping
1783088643113521400,4.872521484375,-2.135877033314854,-0.771101569135487,-12.405586297237871,0.773621141910553,-0.1848135739564895,-0.5180473923683167,jumping
1783088643123565300,4.8825654296875,-3.645000470413267,-5.797381625413895,-13.219248950988051,0.6266170740127563,-1.0760554075241089,-1.391014575958252,jumping
1783088643133610200,4.8926103515625,-4.324201754486561,-5.204725529110432,-13.331686412644386,0.5198203921318054,-1.991385579109192,-2.055870056152344,jumping
1783088643143654400,4.902654296875,-4.288565792959928,-3.295940656766295,-15.953117450284957,0.1731849461793899,-2.20949125289917,-2.427112579345703,jumping
1783088643153698300,4.9126982421875,-5.318023991510271,-2.689709331835806,-16.59271182337403,0.2462875843048095,-1.973616361618042,-2.712697744369507,jumping
1783088643163742200,4.9227421875,-6.446539945662021,-0.5875783546477555,-17.32038429288864,0.5435882210731506,-1.1249585151672363,-2.754067897796631,jumping
1783088643173787400,4.932787353515625,-4.923405664998293,0.7597256041184067,-17.33194964299798,0.5605790019035339,-0.324740320444107,-2.7736098766326904,jumping
1783088643183831300,4.942831298828125,-2.2403199890859424,2.996997457680106,-16.531358067744968,0.3677994310855865,0.5013371109962463,-2.5070223808288574,jumping
1783088643193875200,4.952875244140625,0.6725447487935423,6.6433753539264195,-15.505836624121663,0.055954810231924,1.165196657180786,-1.8260412216186523,jumping
1783088643203920400,4.96292041015625,3.186133251352608,8.380767302298546,-13.676432747006416,-0.1036692112684249,1.584348440170288,-0.9687483906745912,jumping
1783088643213964300,4.97296435546875,3.9417484975427386,7.332091777580976,-11.528929719436167,-0.0816854164004325,1.662520408630371,-0.2756892740726471,jumping
1783088643224008400,4.983008544921875,2.4989073585167527,5.64395631980896,-10.351026926302907,-0.0872519612312316,1.7478097677230835,0.1882621645927429,jumping
1783088643234053400,4.993053466796875,0.5735983446121216,2.4803061184212565,-8.982063216653465,-0.1605353504419326,1.8298182487487793,0.3054768145084381,jumping
1783088643244097300,5.00309716796875,-0.5423790304839611,-0.7438543735086918,-7.1404580296128985,-0.0403407700359821,2.03328537940979,0.0021739094518125,jumping
1783088643254141400,5.013141357421875,-0.6035013519773259,-1.622403925450146,-3.763710728728771,0.1983868926763534,2.0955095291137695,-0.4990292489528656,jumping
1783088643264185000,5.02318505859375,-0.9738198248934,-0.6706663877010345,-0.1198509527832269,0.4224410355091095,2.0382373332977295,-0.849611222743988,jumping
1783088643274230300,5.033230224609375,-1.1391359131697565,0.2058589649364352,3.490103630951047,0.5586885809898376,1.8226953744888303,-1.0334042310714722,jumping
1783088643284274400,5.0432744140625,-0.6224222159486263,0.5087409647762775,6.775918615022301,0.6478413343429565,1.4762070178985596,-1.1677734851837158,jumping
1783088643294318000,5.053318115234375,-0.472280096732825,1.1232691395394503,9.842831904971598,0.646499752998352,1.0396560430526731,-1.191669464111328,jumping
1783088643304363300,5.06336328125,-0.632132001319155,1.470745921778679,13.117690610742567,0.4446244239807129,0.4457649886608124,-1.1290295124053955,jumping
1783088643314407400,5.073407470703125,-0.4319484151380136,1.1705262730158863,15.662661509037015,0.0598772875964641,-0.4616081118583679,-0.997588872909546,jumping
1783088643324451300,5.083451416015625,-0.8407773821037262,1.081072942714393,15.470758296477792,-0.2709043622016907,-1.2723242044448853,-0.8147117495536804,jumping
1783088643334496300,5.093496337890625,-1.5264035115927457,1.3060771914951503,14.276960015076398,-0.4121001362800598,-1.9682719707489016,-0.6196701526641846,jumping
1783088643344540400,5.10354052734375,-1.6750468436181545,0.7786123831570148,13.063427105635403,-0.221906766295433,-2.4076366424560547,-0.501369833946228,jumping
1783088643354584300,5.113584228515625,-1.4094199309393762,0.1926806266725063,12.70002049446702,0.1481924355030059,-2.5575520992279053,-0.3780058622360229,jumping
1783088643364628200,5.123628173828125,-0.8275549855023622,-0.0433674325615167,12.959095793545243,0.4248227179050445,-2.510427951812744,-0.2628968358039856,jumping
1783088643374673400,5.13367333984375,0.3184187377981841,0.0757128281101584,13.391202431452273,0.4897562861442566,-2.2484688758850098,-0.1245037093758583,jumping
1783088643384717300,5.14371728515625,1.5842653334528207,0.3876810745947063,13.95384683585167,0.3287322223186493,-1.8946610689163208,0.1020958796143531,jumping
1783088643394761200,5.15376123046875,2.6243232519507407,0.3615047230698168,13.613614179521798,-0.0681587234139442,-1.5142829418182373,0.3547403216361999,jumping
1783088643404806400,5.163806396484375,3.0776708308070897,0.0429160355322062,11.972081482970712,-0.4952597320079803,-1.0825421810150146,0.647782564163208,jumping
1783088643414850300,5.173850341796875,2.690965177115798,-0.4882327220156788,10.625313823038338,-0.7242866158485413,-0.7095372080802917,0.9151273369789124,jumping
1783088643424894200,5.183894287109375,2.5125743570804593,-1.3331187815472485,8.970067658433317,-0.7583902478218079,-0.6260005235671997,1.1074893474578855,jumping
1783088643434939400,5.193939453125,2.494391634657979,-2.234739412474632,6.635874769037962,-0.491547167301178,-0.5495938062667847,1.1958903074264526,jumping
1783088643444983300,5.2039833984375,1.6874242407627402,-2.484041213296354,4.895152214938402,-0.0562692023813724,-0.389492005109787,1.228888988494873,jumping
1783088643455027500,5.21402734375,0.65144190114066,-3.3861206939071415,4.930044080099464,0.3654512763023376,-0.3011085987091064,1.114943504333496,jumping
1783088643465071000,5.224071044921875,0.3084584847979247,-4.207261136192083,5.961082825839519,0.6612171530723572,-0.3363898992538452,0.879339337348938,jumping
1783088643475116300,5.2341162109375,0.652689563114196,-4.589181016911566,7.223057986888289,0.7187498211860657,-0.4413760006427765,0.6262094974517822,jumping
1783088643485160400,5.244160400390625,1.0859424484468996,-4.4351632983714335,7.703695139208436,0.4788408279418945,-0.3352751135826111,0.3943701386451721,jumping
1783088643495204000,5.2542041015625,1.4013431535981595,-4.028441861611604,9.062651249584556,0.1817429363727569,-0.1866011619567871,0.2572475075721741,jumping
1783088643505249300,5.264249267578125,1.8073339379958808,-3.631466450579464,10.306834733355045,-0.1110061034560203,-0.0605002157390117,0.1588008552789688,jumping
1783088643515293400,5.27429345703125,2.434093379431218,-2.805119087301194,10.829182198679447,-0.3037268221378326,0.0314744599163532,0.1265883147716522,jumping
1783088643525337300,5.28433740234375,2.7078616591200233,-1.722788253480196,11.080098741221429,-0.3705165088176727,0.023213867098093,0.1984398663043975,jumping
1783088643535382300,5.29438232421875,2.7495196574151515,-1.0856292908445,10.85174240553379,-0.3387446105480194,-0.1136131808161735,0.2908508777618408,jumping
1783088643545426400,5.304426513671875,2.5912048262029885,-0.9418857135593892,9.993682976174354,-0.2410215139389038,-0.3337346315383911,0.356401115655899,jumping
1783088643555470300,5.31447021484375,2.072981893462688,-0.650124242670834,8.742298182722926,-0.1127246096730232,-0.5291343331336975,0.4510700404644012,jumping
1783088643565515300,5.324515380859375,1.4063732567198577,-0.0581453149765729,8.100275705704092,0.0558960996568203,-0.7681514620780945,0.5416039228439331,jumping
1783088643575559400,5.334559326171875,2.035794026318938,0.1061383615121245,7.849037091600894,0.1765655279159546,-1.01604163646698,0.6013402342796326,jumping
1783088643585603300,5.344603271484375,2.129039588510245,0.8260001572757959,7.065113742554187,0.1606893837451934,-1.1181412935256958,0.6984822154045105,jumping
1783088643595647200,5.354647216796875,1.9129979599945248,1.811604893313348,5.395998627072572,-0.021943436935544,-0.8272424936294556,0.7567832469940186,jumping
1783088643605692400,5.3646923828125,2.0013861452825368,2.821397437407076,5.309170822969079,0.0142563786357641,-0.5767631530761719,0.8390371203422546,jumping
1783088643615736300,5.374736328125,2.6089935808718203,3.265772312995791,5.1643584474086754,-0.0367925465106964,-0.626069962978363,0.918035626411438,jumping
1783088643625780200,5.3847802734375,1.7918178044341504,4.149714663891494,2.7114211051672696,-0.3769266903400421,-0.9524653553962708,1.1228753328323364,jumping
1783088643635825400,5.394825439453125,0.513750463501364,3.180816732504964,-0.8216635893762111,-0.7603431940078735,-1.4157925844192505,1.1792010068893433,jumping
1783088643645869300,5.404869384765625,-0.1733215539470315,2.971264173747599,-4.534292950165272,-0.8479785323143005,-1.825116753578186,1.218464493751526,jumping
1783088643655913500,5.41491357421875,-2.72788825584352,4.795448270387947,-10.590741691350935,-0.8160607218742371,-1.4405851364135742,1.494372844696045,jumping
1783088643665957000,5.42495703125,-3.9372798276960848,4.155639085504412,-17.844193062937258,-0.7668154239654541,0.0142484065145254,1.751187086105347,jumping
1783088643676002300,5.435002197265625,-8.584428757190704,0.7867790307387709,-28.498133261001108,-1.3358608484268188,2.984025239944458,1.663603663444519,jumping
1783088643686046500,5.44504638671875,-11.14490468313098,-1.934917969249189,-29.737452938127515,-1.9042928218841553,4.885535717010498,1.185503363609314,jumping
1783088643696090000,5.455090087890625,-5.409124066105485,0.9584864274874328,-19.83915458199978,-1.393346667289734,4.397725582122803,0.8632184267044067,jumping
1783088643706135300,5.46513525390625,-2.3881413372039795,4.3202717215612525,-15.586094986706971,-0.32410529255867,2.9712822437286377,0.7166910171508789,jumping
1783088643716179500,5.475179443359375,-2.7264678676515817,4.823132103866339,-15.340185458672046,0.3661893904209137,1.7579832077026367,0.5036646723747253,jumping
1783088643726223000,5.48522314453125,-2.46959475479275,5.172998849982023,-15.803720669543742,0.3948806822299957,1.1880446672439575,0.425802081823349,jumping
1783088643736268300,5.495268310546875,-2.4058532272443176,4.4556718333929775,-16.289516812062264,0.0866546183824539,0.922126054763794,0.3242234885692596,jumping
1783088643746312400,5.5053125,-2.5483006272390485,1.4413222588956356,-16.610788747334478,-0.1059960573911666,0.4777832627296448,-0.1053071096539497,jumping
1783088643756356400,5.5153564453125,-2.323120583499968,0.437604943062365,-16.802335401540994,-0.0821273177862167,-0.2060749977827072,-0.5800212621688843,jumping
1783088643766400300,5.525400146484375,-1.7923731002293526,1.2588038375362751,-16.75745230371952,0.0431171506643295,-0.9373734593391418,-0.9272327423095704,jumping
1783088643776445400,5.535445556640625,-1.457751707910001,2.360688682132959,-17.04324609837532,0.1708714067935943,-1.4142087697982788,-1.1103010177612305,jumping
1783088643786489300,5.5454892578125,-0.9028785950992256,3.436023957978189,-18.276061215913295,0.2353318929672241,-1.3942947387695312,-1.084177017211914,jumping
1783088643796533200,5.555533203125,0.2857591617338359,4.227764118255674,-18.298527899265288,0.2462793141603469,-1.021973729133606,-0.8742667436599731,jumping
1783088643806578400,5.565578369140625,1.3867057025671004,4.2471427724644535,-15.476362692356108,0.3421797454357147,-0.6826993227005005,-0.5706948637962341,jumping
1783088643816622300,5.575622314453125,1.7338700578562911,4.326557669962942,-11.362837824481725,0.5212104320526123,-0.4699640274047851,-0.2233646959066391,jumping
1783088643826666200,5.585666259765625,1.2782185859717428,3.8277901099294422,-7.311067109730839,0.6698600649833679,-0.3274188637733459,0.0812833532691001,jumping
1783088643836711200,5.595711181640625,0.0426817883849144,2.361586215494573,-4.092138380974531,0.6829169392585754,-0.1245729625225067,0.2500605881214142,jumping
1783088643846755300,5.60575537109375,-0.7467211611166596,0.961880453839898,-1.9347838214755055,0.5555241107940674,0.1783450990915298,0.2795809209346771,jumping
1783088643856799500,5.615799560546875,-0.0948133960299193,0.0298673149973154,-0.0667605831086635,0.3867154121398926,0.4392228126525879,0.1759370863437652,jumping
1783088643866843100,5.625843017578125,0.8510906132601201,0.0554220274925231,1.905318073016405,0.2165921330451965,0.5744828581809998,-0.0030403854325413,jumping
1783088643876888300,5.635888427734375,0.7465143864981829,0.4870081486567854,4.272963150158525,0.0603144615888595,0.6156271696090698,-0.1585145741701126,jumping
1783088643886932500,5.645932373046875,0.4623099068604409,0.0548565025642514,6.738377696657181,0.0001384727656841,0.5855630040168762,-0.2873953282833099,jumping
1783088643896976100,5.65597607421875,0.5750496393989771,-0.6467945137262344,9.207373608773946,0.059710294008255,0.4360519051551819,-0.4372523725032806,jumping
1783088643907021300,5.666021240234375,0.3272640152938664,-0.7734659601792693,11.216542516887188,0.0894370302557945,0.1974364072084427,-0.5006041526794434,jumping
1783088643917065500,5.6760654296875,-0.063619435538724,-1.407447169561684,12.522044100451469,0.0699560791254043,0.0388854965567588,-0.5251810550689697,jumping
1783088643927109000,5.686109130859375,-0.1454546189866959,-2.2620760399505495,14.113746305906773,-0.0081914477050304,-0.2596189081668854,-0.5750706195831299,jumping
1783088643937154300,5.696154296875,-0.6068851126641035,-2.5633991199105974,14.10582252717018,-0.1419262439012527,-0.5135094523429871,-0.6097725629806519,jumping
1783088643947198500,5.706198486328125,-0.6234075006589294,-2.7757886556595563,12.939294530010224,-0.2337760031223297,-0.6945753693580627,-0.6115952134132385,jumping
1783088643957242600,5.71624267578125,-0.0368444605335593,-2.663174668392539,11.614010387611389,-0.2459196299314499,-0.8451376557350159,-0.5976845622062683,jumping
1783088643967286800,5.726286865234375,0.8232450133487582,-2.333506368435919,10.437987416875362,-0.1510895192623138,-0.9635822772979736,-0.552266001701355,jumping
1783088643977331700,5.736331787109375,1.4278817625641822,-1.7361986469343305,9.877031111693382,0.024023350328207,-0.9667131900787354,-0.4514183104038238,jumping
1783088643987375600,5.746375732421875,1.7264583202950656,-1.7457602560058234,9.868954188221691,0.1657692939043045,-0.8973586559295654,-0.3468202650547027,jumping
1783088643997419800,5.756419677734375,1.7181224536262452,-2.2564383263245222,9.72598773278892,0.2233369052410125,-0.6850579380989075,-0.2699705958366394,jumping
1783088644007464700,5.766464599609375,1.6131540126763284,-2.555470080476999,9.422108246344328,0.1843016296625137,-0.3966658115386963,-0.2344708889722824,jumping
1783088644017508900,5.7765087890625,1.6063031238682568,-2.5106404664084314,8.950604248550533,0.0947220548987388,-0.0536058992147445,-0.2068090587854385,jumping
1783088644027552800,5.786552734375,1.747561606339365,-2.2870725340411067,8.47923118366003,-0.0245329663157463,0.2963819205760956,-0.1722750514745712,jumping
1783088644037597700,5.79659765625,1.8842460588932035,-2.185629636868834,8.074424056088924,-0.1380116045475006,0.6123428344726562,-0.1318150013685226,jumping
1783088644047641900,5.806641845703125,1.808629823025316,-2.575804135714471,7.683249148029088,-0.191079095005989,0.872143030166626,-0.1169510930776596,jumping
1783088644057685800,5.816685791015625,1.6416363030560317,-3.3913387208163734,7.51696377632916,-0.1696817725896835,1.0550177097320557,-0.1715388149023056,jumping
1783088644067729700,5.826729736328125,1.4244725386425852,-4.138949524249136,7.931658091664314,-0.1100277602672576,1.1000834703445437,-0.2797326743602752,jumping
1783088644077774800,5.83677490234375,1.551447205825895,-4.94681693572402,8.806786729246378,-0.0642188116908073,0.9627769589424132,-0.429387480020523,jumping
1783088644087818800,5.84681884765625,1.6990043500497936,-5.595235251259804,9.276603212344646,-0.0300422050058841,0.7813413739204407,-0.6003741025924683,jumping
1783088644097862700,5.856862548828125,1.7640055222705004,-5.443791474860906,8.861096996104717,0.0048133172094821,0.7297850847244263,-0.7302457690238953,jumping
1783088644107907800,5.866907958984375,2.0935363134525713,-4.22810781712681,8.645264041903614,0.0529262535274028,0.7640940546989441,-0.7161062359809875,jumping
1783088644117951700,5.87695166015625,2.433162236060947,-2.458826108019054,8.569948980939389,0.0813895612955093,0.8530399799346924,-0.556527316570282,jumping
1783088644127995600,5.88699560546875,2.9371877166226503,-1.5390090184047818,8.815796549654006,0.0297316908836364,0.939142107963562,-0.3714213669300079,jumping
1783088644138039800,5.897039794921875,3.3720772632464766,-1.279490943995118,9.202378284704684,-0.1139232292771339,0.8761863112449646,-0.1578171998262405,jumping
1783088644148084700,5.907084716796875,3.1006442946374415,-1.5221818022444844,9.0741482106328,-0.2985505759716034,0.5887380242347717,0.0190971195697784,jumping
1783088644158128600,5.917128662109375,1.9110794130221007,-1.9821119743615387,8.070280964934826,-0.4517418146133423,0.2113807499408722,0.1114477515220642,jumping
1783088644168172800,5.9271728515625,-0.0276550457753241,-2.255038688659668,7.367597975248098,-0.4019185900688171,-0.1943044364452362,0.0711908787488937,jumping
1783088644178217700,5.9372177734375,-0.8016920838408171,-2.083801247510314,7.389427529740333,-0.0512982606887817,-0.5619788765907288,-0.1419445574283599,jumping
1783088644188261600,5.94726171875,0.2495411625355482,-0.2883946248039603,7.118895017102361,0.4360599517822265,-0.7282650470733643,-0.172349601984024,jumping
1783088644198305800,5.957305908203125,1.1758985406387596,2.563452603663504,8.219404189431668,0.6265580654144287,-1.0660359859466553,0.1119471341371536,jumping
1783088644208350700,5.967350830078125,2.6263135489851233,3.8548604876846073,8.986912994772196,0.4952830672264099,-1.613205075263977,0.5085709095001221,jumping
1783088644218395000,5.977394775390625,3.3233503494784236,4.936808167406916,7.24726303834021,0.0853467434644699,-2.2891671657562256,0.9078749418258668,jumping
1783088644228438800,5.987438720703125,1.4255271622620522,5.191552743804454,3.2177883265495297,-0.470389187335968,-2.8476858139038086,1.251479983329773,jumping
1783088644238483700,5.997483642578125,-1.8023866908520456,4.583540672937035,-2.636792272901535,-0.8839256763458252,-2.9452874660491943,1.6376287937164309,jumping
1783088644248528000,6.00752783203125,-2.143001186106354,5.781423008781672,-8.387795008978248,-0.97598797082901,-2.650197744369507,2.0090110301971436,jumping
1783088644258571500,6.017571533203125,1.242088265056908,7.020561484122276,-16.602554002952576,-0.966541051864624,-1.3394190073013306,2.260892152786255,jumping
1783088644268615700,6.02761572265625,-1.9424014568723735,3.5218095595523713,-23.611062645709513,-0.9909124374389648,0.4235033094882965,2.2644200325012207,jumping
1783088644278660900,6.037660888671875,-10.28664534728527,-4.209296441411972,-18.63590458164215,-0.508244514465332,0.9311915040016174,1.4601094722747805,jumping
1783088644288704500,6.04770458984375,-11.114357569175958,-7.231496729409694,-16.557456970119475,0.4998537600040436,0.936672031879425,0.2419053018093109,jumping
1783088644298748700,6.057748779296875,-7.153108836871385,-4.404349642434716,-16.239701518535615,1.365437150001526,0.4418152570724487,-0.6443139314651489,jumping
1783088644308793900,6.0677939453125,-4.295471919086575,1.133970127904415,-15.815668296968935,1.5138990879058838,-0.1107262298464775,-0.9803651571273804,jumping
1783088644318837800,6.077837646484375,-4.277049542689324,3.5992791682019827,-16.140710398429633,1.273551344871521,-0.4869677424430847,-0.9839894771575928,jumping
1783088644328881700,6.087881591796875,-5.790447442236542,3.4816508599042892,-16.11199283798933,0.9703137874603271,-0.7443880438804626,-0.9977747797966005,jumping
1783088644338925800,6.09792578125,-5.405303631034493,3.2351448272809384,-15.358053123795983,0.6887682676315308,-1.0596928596496582,-0.9728618860244752,jumping
1783088644348970800,6.107970703125,-4.564047744698822,2.739335240270197,-14.667010303020476,0.4327825307846069,-1.476697325706482,-0.9413684010505676,jumping
1783088644359014700,6.1180146484375,-4.759244738106429,1.9255133043050765,-14.927632247018812,0.2478198707103729,-1.7967082262039185,-0.8948317766189575,jumping
1783088644369058800,6.128058837890625,-5.20571570919156,1.142427867387235,-15.954351960515975,0.1966264545917511,-1.7819150686264038,-0.8147707581520081,jumping
1783088644379103700,6.138103759765625,-5.580831462854147,1.5287918680340051,-18.30759266473055,0.106321670114994,-1.0574324131011963,-0.6567424535751343,jumping
1783088644389147600,6.148147705078125,-4.912431851041316,4.328764532357454,-19.11356885563135,-0.1805774718523025,-0.0636003762483596,-0.2054836452007293,jumping
1783088644399191800,6.15819189453125,-4.590595267623662,4.809667349876463,-18.436729916775224,-0.2337162792682647,0.9429596662521362,0.2250238507986068,jumping
1783088644409236700,6.16823681640625,-4.935928461962938,2.8994264335051176,-15.737115569257735,-0.0172044783830642,1.5647534132003784,0.3018558025360107,jumping
1783088644419280600,6.17828076171875,-4.228614305344224,1.6808423781543969,-11.388290245646235,0.254533976316452,1.617154836654663,0.133822962641716,jumping
1783088644429324500,6.188324462890625,-2.921061926729977,1.8923329192370175,-8.528433313724397,0.4347431361675262,1.2897082567214966,-0.0711927711963653,jumping
1783088644439368700,6.19836865234375,-1.4952657382681964,2.720905849610269,-7.501479791471362,0.6373865008354187,0.7980586886405945,-0.2453606128692627,jumping
1783088644449414000,6.208413818359375,-0.4003777668215334,3.473903606778383,-6.57379269913435,0.8040447235107422,0.298787385225296,-0.3780275583267212,jumping
1783088644459457500,6.21845751953125,0.2428903263442218,3.9391584810495375,-4.564350234776735,0.939279079437256,-0.0413491316139698,-0.3924346268177032,jumping
1783088644469501700,6.228501708984375,0.7320369483344257,3.741038001410663,-1.6744558919876813,1.071292757987976,-0.2186687886714935,-0.343508630990982,jumping
1783088644479547000,6.238546875,1.583116601809114,3.4676916003957388,2.176771792152524,1.145040512084961,-0.3717379570007324,-0.276751697063446,jumping
1783088644489590500,6.248590576171875,2.65811913856864,2.884517033664882,6.139609839475154,1.0435751676559448,-0.6098551750183105,-0.2033848017454147,jumping
1783088644499634700,6.258634765625,3.1446842196330427,1.7985853988729417,8.977277151420711,0.7961817383766174,-0.7583073377609253,-0.1607868522405624,jumping
1783088644509679900,6.268679931640625,3.19538038764745,0.6234288357079029,11.80224280270338,0.4187100827693939,-0.9663199186325072,-0.1719375103712082,jumping
1783088644519723800,6.278723876953125,2.7755270821139213,-0.2452120472900569,14.093007469260693,-0.0480123460292816,-1.2655599117279053,-0.2096526473760604,jumping
1783088644529767700,6.288767578125,2.1765520119220017,-0.8715355815261602,14.976792876029014,-0.4990160167217254,-1.572216510772705,-0.2410380095243454,jumping
1783088644539811800,6.298811767578125,2.021313811676204,-1.0151045328967272,14.988745179629325,-0.7631216645240784,-1.9053330421447752,-0.2564254403114319,jumping
1783088644549856800,6.308856689453125,2.382392272157967,-0.7446690508924424,14.406432782685757,-0.8739887475967407,-2.18986439704895,-0.2220488339662552,jumping
1783088644559900700,6.318900634765625,3.306718948151171,-0.588998742839694,13.444924669289588,-0.8783202171325684,-2.3222360610961914,-0.1263876259326934,jumping
1783088644569944800,6.32894482421875,3.988121833921969,-0.6702163058459758,11.981030513101816,-0.4945176839828491,-2.0232460498809814,-0.0170709900557994,jumping
1783088644579989800,6.33898974609375,4.041288483703136,-0.4152294451251626,11.209926898139717,0.096406765282154,-1.6145671606063845,0.0787891298532486,jumping
1783088644590033700,6.34903369140625,3.5838486670970915,-0.5597738173991441,10.281394002628328,0.6162006855010986,-1.0143369436264038,0.1392399668693542,jumping
1783088644600077600,6.35907763671875,3.160627638696134,-1.315028705844283,9.79316508000493,0.858227014541626,-0.2552610039710998,0.1173838153481483,jumping
1783088644610121700,6.369121826171875,3.070672350221872,-2.5807196725457904,9.576803718015553,0.6599797010421753,0.4187512397766113,0.0718442946672439,jumping
1783088644620166700,6.379166748046875,3.4165967884525656,-3.5460596191897986,8.723480669528245,0.1088748127222061,0.8786593675613403,0.0353302657604217,jumping
1783088644630210600,6.38921044921875,3.7558530009657143,-3.33798706985712,7.227412090444564,-0.396045058965683,1.3204188346862793,0.0554571039974689,jumping
1783088644640254700,6.399254638671875,3.641408583401143,-3.316611104351282,5.743251391297578,-0.6511780023574829,1.701786756515503,0.0917285829782486,jumping
1783088644650300000,6.4092998046875,3.4090497340738772,-3.5989416068106888,4.85324959423244,-0.6633148193359375,1.9937427043914795,0.0745128467679023,jumping
1783088644660343600,6.419343505859375,2.9809815579026937,-3.589849076555669,5.356256399270892,-0.4933445453643799,2.102825880050659,-0.0102087948471307,jumping
1783088644670387700,6.4293876953125,2.6546578921988604,-3.5055241951838134,6.953079601001739,-0.2580803632736206,1.883411526679993,-0.1222027018666267,jumping
1783088644680433000,6.439432861328125,2.468369012390077,-3.111976420512795,8.326601412346958,-0.0152556281536817,1.482728362083435,-0.2078493237495422,jumping
1783088644690476500,6.4494765625,2.428614509628713,-2.4468138909250494,9.006184096953273,0.1320028007030487,1.0844849348068235,-0.2790957987308502,jumping
1783088644700520700,6.459520751953125,2.5519948055818675,-2.2170868514060973,9.75127590330243,0.148255705833435,0.6778022646903992,-0.294961154460907,jumping
1783088644710564900,6.46956494140625,2.664905729968846,-2.062066093303263,10.112346764999629,0.0830021500587463,0.3587241470813751,-0.2187561243772506,jumping
1783088644720609800,6.47960986328125,3.41292394515872,-1.699363538751006,10.243977587425707,-0.0309418700635433,0.0416892059147357,-0.1144386455416679,jumping
1783088644730653700,6.48965380859375,4.417338595606386,-0.8489195528313517,10.16987891651392,-0.1063162535429,-0.2303689271211624,0.0028136756736785,jumping
1783088644740697900,6.49969775390625,4.346177731712162,0.1971189013808965,9.755538821443915,-0.1974905431270599,-0.4134001731872558,0.171263501048088,jumping
1783088644750742800,6.50974267578125,3.6379990672186016,0.4109767561167478,9.534493101030588,-0.3025256097316742,-0.4468252658843994,0.3513360619544983,jumping
1783088644760786700,6.51978662109375,2.690042801573872,0.4059349625572562,9.812249719703196,-0.4054713845252991,-0.4940716922283172,0.5996338129043579,jumping
1783088644770830600,6.52983056640625,1.820150311079621,0.0477671288251876,9.532214634704587,-0.5254947543144226,-0.4077810049057007,0.7461745142936707,jumping
1783088644780875800,6.539875732421875,2.7602766137510537,-0.0526756513938307,8.793606929677724,-0.6101332306861877,-0.2710337042808532,0.7642282843589783,jumping
1783088644790919700,6.549919677734375,3.824676946344971,1.3943430655777451,8.635868437048792,-0.610115647315979,-0.4682594239711761,0.9430467486381532,jumping
1783088644800963600,6.559963623046875,4.405285461980104,2.6793556956037876,6.97840401187241,-0.4980342388153076,-0.8009653091430664,1.2661539316177368,jumping
1783088644811007700,6.5700078125,4.279536391068994,3.114109925410151,4.365301242116093,-0.3330884277820587,-1.0685008764266968,1.573918342590332,jumping
1783088644821052700,6.580052734375,2.541252754554153,2.671104876869917,1.8956781380116936,-0.1508745700120926,-1.0210206508636477,1.7840142250061035,jumping
1783088644831096600,6.5900966796875,-0.2153425403356552,1.3708233660414817,0.2170949369609355,-0.0568484663963317,-0.6207749843597412,1.821181297302246,jumping
1783088644841140700,6.600140625,-2.6528026197209953,0.2067503608182072,0.7011398518979549,-0.1783680766820907,-0.1869716644287109,1.7002031803131104,jumping
1783088644851186000,6.61018603515625,-1.3677639784708615,0.5055971137925982,0.0980780969142913,-0.6011688709259033,0.2811204195022583,1.4598875045776367,jumping
1783088644861229600,6.6202294921875,2.491856855483353,6.15565730343461,-2.016507580438256,-0.8707287311553955,0.2421790063381195,1.8715665340423584,jumping
1783088644871273700,6.630273681640625,-1.076582645557821,11.647461406314372,-9.0477769210577,-0.9422431588172911,0.7703456282615662,2.601616144180298,jumping
1783088644881319000,6.64031884765625,-9.582303484475611,3.2747800875768065,-22.832360246181487,-1.0478806495666504,2.719214916229248,2.3297998905181885,jumping
1783088644891362600,6.650362548828125,-10.170996522367,-4.581118414226174,-27.068713036823272,-0.9758363366127014,3.86275315284729,1.1601603031158447,jumping
1783088644901406700,6.66040673828125,-2.6366099020719527,-1.4476719201833008,-21.7883784322381,-0.2223850190639495,3.559126138687134,0.6310504674911499,jumping
1783088644911451000,6.670450927734375,-0.9978663978479804,3.143152772282064,-14.497961896348,0.6854162812232971,2.1477086544036865,0.6235414743423462,jumping
1783088644921495600,6.68049560546875,-3.435635250921547,1.1156737159743904,-9.873556713581085,1.0582696199417114,0.7755185961723328,0.3836919367313385,jumping
1783088644931539700,6.690539794921875,-4.577856782081723,-0.6542287553802132,-8.491239016839861,0.9293507933616638,0.0703114420175552,-0.1202510893344879,jumping
1783088644941583600,6.70058349609375,-3.6114091664567582,0.3780871706888079,-8.84673003257811,0.4459145963191986,-0.2588193416595459,-0.4953735470771789,jumping
1783088644951628500,6.710628662109375,-2.8996207870334385,0.7279787589848041,-12.588738048064709,0.267342209815979,-0.3430180847644806,-0.744765043258667,jumping
1783088644961672200,6.720672119140625,-2.940853837914765,-0.1618812915220856,-16.435822641050816,0.3248849213123321,-0.2934738099575043,-0.9983953237533568,jumping
1783088644971716400,6.73071630859375,-2.7140859404623505,-0.1515720789536833,-19.94990745157003,0.3078681230545044,0.0749233812093734,-1.0378303527832031,jumping
1783088644981760300,6.74076025390625,-2.280802806121856,0.7389069802343845,-21.016334906077383,0.1614994555711746,0.3839563429355621,-0.950785219669342,jumping
1783088644991805400,6.750805419921875,-1.6585373151049017,1.816708061671257,-20.471997727262973,0.0958709046244621,0.5867539644241333,-0.7743646502494812,jumping
1783088645001849300,6.760849365234375,-1.1868446628712117,3.875406724368036,-18.966620052564146,0.3065624535083771,0.7077149748802185,-0.5126216411590576,jumping
1783088645011893200,6.770893310546875,-1.51549910961017,4.599174587659538,-16.48414740375876,0.6826301217079163,0.7784025073051453,-0.3039110600948334,jumping
1783088645021938400,6.7809384765625,-2.3067956177733837,3.3150203280285,-13.449661634683608,0.9976915121078492,0.7851663827896118,-0.3302966654300689,jumping
1783088645031982300,6.790982421875,-2.7822333017542955,2.213733449324965,-10.97719833871722,1.0376293659210205,0.8171530365943909,-0.5305238366127014,jumping
1783088645042026200,6.801026123046875,-2.2766551849231123,2.223181953410804,-9.070092797762156,0.8986009359359741,0.950980305671692,-0.770195484161377,jumping
1783088645052071400,6.811071533203125,-1.0293825760308652,2.434228550118208,-7.311653385186195,0.7272089123725891,1.017171859741211,-1.010541558265686,jumping
1783088645062115300,6.821115234375,0.4450532132416963,2.375607726584375,-6.583936492007971,0.6214072108268738,1.031790852546692,-1.1688069105148315,jumping
1783088645072159200,6.8311591796875,1.5555971651121974,2.449129474391043,-5.475380206823349,0.694169282913208,0.8417724967002869,-1.2349990606307983,jumping
1783088645082203400,6.841203369140625,1.6096239388540383,2.7275387117534873,-4.097327766311168,0.8726013898849487,0.5998886227607727,-1.1640942096710205,jumping
1783088645092248300,6.851248291015625,1.1909277674663812,2.670037539899349,-2.2718594750791787,0.9888063073158264,0.4859002828598022,-1.0072879791259766,jumping
1783088645102292200,6.861292236328125,0.8655807647749781,2.1525968435779212,0.6312830563396216,1.0080872774124146,0.4277415871620178,-0.7975102066993713,jumping
1783088645112336400,6.87133642578125,0.7114642620354891,1.707760341826826,3.973699048554897,0.9500787258148192,0.3685035407543182,-0.5982021689414978,jumping
1783088645122381600,6.881381591796875,0.2231928885098546,1.0468543006397784,6.877323226010799,0.7924315929412842,0.306367814540863,-0.4621087610721588,jumping
1783088645132425200,6.89142529296875,0.1621484180256724,-0.2462549804717302,9.151450646021962,0.53953617811203,0.1298423260450363,-0.4195972681045532,jumping
1783088645142469400,6.901469482421875,0.2244682422079146,-1.7218967114679515,10.18159039709568,0.2706387639045715,-0.1667599231004715,-0.4658693671226501,jumping
1783088645152513300,6.91151318359375,0.2477144585650414,-2.6879110502421852,10.452125832343102,0.0629859790205955,-0.5640822052955627,-0.5646782517433167,jumping
1783088645162558200,6.92155810546875,-0.0578993043262511,-2.702514160612225,10.353369690036772,-0.0256542582064867,-0.9504380226135254,-0.6406751275062561,jumping
1783088645172602400,6.931602294921875,0.0678309157539159,-2.3744407286316154,10.147856469798088,-0.0235666073858737,-1.2585710287094116,-0.6670835614204407,jumping
1783088645182646300,6.941646240234375,0.6028805531978607,-1.8201666776925325,10.585599067765472,-0.0070534795522689,-1.506192684173584,-0.6891393661499023,jumping
1783088645192691200,6.951691162109375,0.7519466406799853,-0.7365472653657198,10.23065984069109,0.0219387579709291,-1.4545563459396362,-0.640450119972229,jumping
1783088645202735400,6.9617353515625,1.1949939209267495,0.0040701720483601,10.749257013571262,0.0605432949960231,-1.3277932405471802,-0.5462076663970947,jumping
1783088645212779300,6.971779296875,1.7876451949246226,0.2489718382149934,11.046706174707412,0.1441444456577301,-1.2092167139053345,-0.4066769182682037,jumping
1783088645222824400,6.981824462890625,1.9886048435121773,0.5633858704164624,10.79773258292675,0.2615487277507782,-0.9024962186813354,-0.2459930777549743,jumping
1783088645232868400,6.991868408203125,2.376608720320463,0.0949798386380076,11.7096615496397,0.2632896304130554,-0.7522744536399841,-0.0875709429383277,jumping
1783088645242912300,7.001912353515625,2.5969775643855333,-1.560901555130631,11.42995145881176,0.190188929438591,-0.666111409664154,-0.0029789537657052,jumping
1783088645252956400,7.011956298828125,2.0527498372949657,-2.8476997533991932,9.716388129794597,0.1836857497692108,-0.3906097710132599,-0.0768771469593048,jumping
1783088645263001300,7.02200146484375,1.518055077703297,-3.1345968331217766,8.801668071058392,0.3374349176883697,0.019904363900423,-0.211317703127861,jumping
1783088645273045200,7.032045166015625,1.5474132741346955,-2.993030307614803,8.8632912912786,0.5043578743934631,0.4121741652488708,-0.319111555814743,jumping
1783088645283089400,7.04208935546875,1.744970566932857,-2.5000486375063655,8.910584957373143,0.5482524633407593,0.7727015018463135,-0.3807409405708313,jumping
1783088645293134300,7.05213427734375,1.9028059440650045,-1.913133569072932,8.89423412655294,0.4359101951122284,1.0378310680389404,-0.4584229588508606,jumping
1783088645303178200,7.06217822265625,2.01512474777773,-1.1972728256441652,8.787004170411825,0.3027679622173309,1.2175135612487793,-0.504732608795166,jumping
1783088645313222400,7.072222412109375,1.8875104675166308,-0.4392420427449047,8.812523227071761,0.2244284152984619,1.2666680812835691,-0.4663242399692535,jumping
1783088645323267600,7.082267578125,2.264411058769375,-0.3898706935934722,8.663194835391641,0.2208108007907867,1.183088302612305,-0.4014978110790252,jumping
1783088645333311200,7.092311279296875,2.187898166322708,-0.6029580023482441,8.359303658509255,0.2647700011730194,1.1080081462860107,-0.3315911591053009,jumping
1783088645343355400,7.10235546875,1.809802666196972,-1.2639091978512704,8.918064499473571,0.2517567574977875,0.9773552417755128,-0.3296030759811401,jumping
1783088645353399300,7.1123994140625,1.6641531091600656,-1.3846043463736772,9.285388576346636,0.1622628271579742,0.8307868242263794,-0.3596190214157104,jumping
1783088645363444200,7.1224443359375,1.671632066738605,-0.9607451661996544,9.655418405047058,0.0401186048984527,0.6340209245681763,-0.3882372975349426,jumping
1783088645373488400,7.13248828125,1.4405164954707026,-0.2372282089293003,9.83109821255803,-0.052926916629076,0.433991938829422,-0.4229436218738556,jumping
1783088645383532300,7.1425322265625,0.737976932842657,0.5577459648333489,9.87406641666889,-0.127907857298851,0.1721764355897903,-0.350087970495224,jumping
1783088645393577200,7.1525771484375,0.3659605334348976,0.774473383656144,9.350361691516635,-0.2147335708141327,-0.1499017477035522,-0.2585868239402771,jumping
1783088645403621400,7.162621337890625,1.0344034729328009,0.792412214320153,8.743636153328419,-0.2594937086105346,-0.5554192066192627,-0.1944886296987533,jumping
1783088645413665300,7.172665283203125,1.8513564734652637,1.502545666143298,7.38370798304975,-0.3384686708450317,-0.9826823472976683,-0.04909148812294,jumping
1783088645423709400,7.18270947265625,2.313943443701416,2.0066054873660204,6.552654634037613,-0.3819486200809479,-1.5641002655029297,0.064495138823986,jumping
1783088645433754400,7.19275439453125,2.418556641472876,2.1453911499828098,3.354550666645169,-0.4760759174823761,-1.7803670167922974,0.1272543966770172,jumping
1783088645443798300,7.20279833984375,0.47573505949229,2.4377874116435647,0.0166056823641061,-0.2772383391857147,-1.4457865953445437,0.2571496665477752,jumping
1783088645453842400,7.212842529296875,-0.0961472749821841,2.9823224511176347,-0.0287555543631315,-0.1076115146279335,-1.308071851730347,0.4003116190433502,jumping
1783088645463887400,7.222887451171875,-0.5675863908462226,3.956802274289727,-1.3236404668450354,-0.214387372136116,-1.138676643371582,0.8126507997512817,jumping
1783088645473931300,7.23293115234375,-1.8617045567393304,5.241684848195314,-4.876100308465958,-0.6946352124214172,-0.8300056457519531,1.4690510034561155,jumping
1783088645483975400,7.242975341796875,-0.8910134583257138,5.128925899499654,-13.42192256388664,-1.3488054275512695,0.1990358531475067,1.996557116508484,jumping
1783088645494020400,7.253020263671875,1.49344539097324,1.423649385691434,-23.77931376452446,-1.944179654121399,1.8004868030548096,1.9854605197906496,jumping
1783088645504064300,7.263064208984375,0.2659425544992089,-3.4160034987345336,-23.771247362446783,-1.6024975776672363,2.281697034835815,1.625949740409851,jumping
1783088645514108400,7.2731083984375,-3.6111639595240352,-4.642556925529242,-18.270321210956578,-0.2373064011335373,1.8585857152938845,1.0887824296951294,jumping
1783088645524152300,7.28315234375,-5.1086739695876835,-4.0492081707865,-12.97678576401472,1.0933001041412354,1.102468490600586,0.5059828758239746,jumping
1783088645534197200,7.293197265625,-3.469248766709864,-1.1246689233347773,-8.08237822996378,1.472968339920044,0.3695135414600372,0.1095913127064704,jumping
1783088645544241400,7.303241455078125,-2.0346857728160916,2.694339037463069,-6.009166765528917,0.9177653193473816,-0.0774300098419189,0.0756487399339675,jumping
1783088645554285300,7.313285400390625,-1.6818401570200918,2.973370498377085,-5.868295236548781,0.132687821984291,-0.3533774316310882,0.1693717688322067,jumping
1783088645564330200,7.323330322265625,-3.2319729192465543,0.5192511067442596,-7.897597416630387,-0.2717895805835724,-0.4917609989643097,0.0882332921028137,jumping
1783088645574374400,7.33337451171875,-4.071200514625013,-1.7011793560013173,-9.878927300703523,-0.3516178429126739,-0.7189429998397827,-0.1821068525314331,jumping
1783088645584418300,7.343418212890625,-3.356426981911063,-2.479706106701493,-12.100545365798473,-0.3055426478385925,-1.0179803371429443,-0.3945196568965912,jumping
1783088645594462500,7.35346240234375,-3.1956919378146527,-1.8427073030635712,-15.358618940985204,-0.215960294008255,-1.1387131214141846,-0.5245152711868286,jumping
1783088645604507400,7.36350732421875,-3.716374977058172,-1.9975562117308376,-18.155531633216142,-0.0894971713423729,-0.967959463596344,-0.7146193981170654,jumping
1783088645614551300,7.37355126953125,-3.869799698141217,-1.6838498894073068,-20.815207938098908,-0.0193194150924682,-0.3580281436443329,-0.8828893303871155,jumping
1783088645624595500,7.383595458984375,-3.067195906282961,-0.5953589255213737,-22.220524817633628,0.0089485803619027,0.4431638717651367,-0.9198375940322876,jumping
1783088645634640400,7.393640380859375,-2.597088039022684,-0.4937437405221164,-21.338944227433203,0.097447820007801,1.1342123746871948,-0.9123656749725342,jumping
1783088645644684300,7.403684326171875,-2.5636513411059973,-0.4508449483856558,-18.3111488959074,0.2362163215875625,1.4771084785461426,-0.9090465307235718,jumping
1783088645654728400,7.413728515625,-2.1468394490949807,0.2820233362063765,-13.712558537876603,0.4994990825653076,1.4825962781906128,-0.8866674900054932,jumping
1783088645664773400,7.4237734375,-1.827918606993556,0.9021363253645598,-10.255429540288448,0.790140688419342,1.325165629386902,-0.824486255645752,jumping
1783088645674817300,7.4338173828125,-1.409269416552782,1.3471085823245346,-8.147822469776868,1.0180914402008057,1.203462839126587,-0.7648298740386963,jumping
1783088645684861400,7.443861328125,-0.372604793754965,1.305304599687457,-6.04552811872065,1.0507375001907349,1.119466781616211,-0.7751705050468445,jumping
1783088645694905300,7.4539052734375,0.683456457299739,1.7443857527822255,-3.668039108434319,0.8752623796463013,1.0093258619308472,-0.7403919696807861,jumping
1783088645704950300,7.4639501953125,1.56689904197976,2.840062682649493,-1.0222177259027958,0.6461578011512756,0.8606522679328918,-0.6107181906700134,jumping
1783088645714994400,7.473994384765625,2.373867020396888,3.906879428735375,1.7467530664354562,0.4848793745040893,0.6111891865730286,-0.3788607120513916,jumping
1783088645725038300,7.484038330078125,3.0153461843192577,4.631643317326903,3.7976924933075904,0.3928604125976562,0.368519514799118,-0.0586354359984397,jumping
1783088645735083300,7.494083251953125,3.2414912736982107,4.38116049002707,5.267794856485724,0.3480119705200195,0.243333637714386,0.2528060674667358,jumping
1783088645745127400,7.50412744140625,2.383522737492621,3.2122757006078957,6.61140960534513,0.2827875912189483,0.266745924949646,0.4889833629131317,jumping
1783088645755171300,7.51417138671875,0.2790858945149928,2.073955414669961,8.573862354990839,0.147291824221611,0.2717571854591369,0.6304073333740234,jumping
1783088645765215500,7.524215576171875,-1.8564520430386064,0.3592535831421613,10.995022749221324,-0.0102342469617724,0.1999473869800567,0.5621533393859863,jumping
1783088645775260400,7.534260498046875,-3.046601446543634,-0.906923559641093,13.327208974969386,-0.1168978437781333,-0.0326341912150383,0.3237817883491516,jumping
1783088645785304300,7.54430419921875,-3.0158588100165127,-1.2891520679183304,14.526313546085357,-0.1464809477329254,-0.3313417136669159,0.0284724682569503,jumping
1783088645795348500,7.554348388671875,-2.0383125850111243,-0.7681824668183922,14.41313607971668,-0.1413655579090118,-0.5662804245948792,-0.2071778625249862,jumping
1783088645805393400,7.564393310546875,-0.8027813403822481,-0.0300604994818568,13.62912739047408,-0.1526895761489868,-0.6847583651542664,-0.3023395538330078,jumping
1783088645815437300,7.574437255859375,0.1165269959922879,0.0756612440533936,12.924026818251608,-0.1516863703727722,-0.7293625473976135,-0.3247665762901306,jumping
1783088645825481500,7.5844814453125,0.5200336354240774,-0.031628479450941,12.066098321795463,-0.1516611278057098,-0.7496562004089355,-0.3158796727657318,jumping
