time,seconds_elapsed,accel_x,accel_y,accel_z,gyro_x,gyro_y,gyro_z,label
1783090638819666400,0.05966650390625,0.509852579279989,-0.2542123692169785,0.2344488073438405,-0.2269759178161621,0.2487815469503402,-0.1350886523723602,jumping
1783090638829710600,0.069710693359375,0.4923125386752188,0.0242713946864008,0.0637859512120485,-0.2431116551160812,0.2315682172775268,-0.1012401133775711,jumping
1783090638839755300,0.07975537109375,0.3265963451653719,0.0504074142009019,-0.1639817709326744,-0.1882361471652984,0.1838270723819732,-0.0744489803910255,jumping
1783090638849799400,0.08979931640625,0.1533095702707767,-0.0065916533499956,-0.259905320161581,-0.1016133874654769,0.1318695992231369,-0.048814196139574,jumping
1783090638859844400,0.09984423828125,0.0371697469651699,-0.0115124508783221,-0.2034726543217897,-0.0247606821358203,0.0676144361495971,-0.0195833388715982,jumping
1783090638869888300,0.10988818359375,-0.2054351865664124,-0.0065913610890507,-0.1241945349454879,0.0233326349407434,0.0161657463759183,0.0208976324647665,jumping
1783090638879933400,0.119933349609375,-0.4403812759079039,-0.0155544197455048,-0.0562426962256431,0.0553198605775833,0.0121544934809207,0.0523865818977355,jumping
1783090638889977300,0.129977294921875,-0.4479512727707624,0.0104512513875961,0.1294897187441587,0.0646287277340889,0.0460725389420986,0.0684187114238739,jumping
1783090638900022300,0.140022216796875,-0.6169768830895423,0.1538099210083484,0.2435702714323997,0.0240615904331207,0.0880069360136985,0.0895615443587303,jumping
1783090638910066400,0.15006640625,-0.7272196111805737,0.4471364492565393,0.3665945935547351,-0.0654254704713821,0.1013350337743759,0.1475749313831329,jumping
1783090638920111400,0.160111328125,-0.6036591363549232,0.6135027772381901,0.5544891549944877,-0.1746491640806198,0.0692732334136962,0.2360502034425735,jumping
1783090638930155300,0.1701552734375,-0.3422686922021209,0.5147726461559534,0.7490501885861158,-0.2528812885284424,-0.021724596619606,0.3201965093612671,jumping
1783090638940200400,0.180200439453125,-0.1349437463663518,0.1780541354268789,0.7176362286686897,-0.2610864639282226,-0.1555194109678268,0.350462257862091,jumping
1783090638950244400,0.190244384765625,-0.1213299392946064,-0.2230515072777867,0.5210328755944967,-0.2005425691604614,-0.2617815434932709,0.2969191372394562,jumping
1783090638960289500,0.20028955078125,-0.1571617156542837,-0.4673819494277239,0.4562403776884078,-0.099463902413845,-0.3304508924484253,0.2175161987543106,jumping
1783090638970334200,0.210334228515625,-0.4595667456321418,-0.7093798569768667,0.2989782703995704,-0.004521194845438,-0.3389142751693725,0.1402738690376281,jumping
1783090638980378400,0.22037841796875,-0.9282472104378044,-0.7295096218138932,-0.0142184949666261,0.0415725298225879,-0.2540899217128753,0.057063665241003,jumping
1783090638990423600,0.230423583984375,-1.1510272072978318,-0.5132859147295356,-0.1170101763993501,0.0386106632649898,-0.1106403023004531,0.0106893060728907,jumping
1783090639000467200,0.24046728515625,-0.9399046227447688,-0.4415902133062481,-0.1199777940332889,0.0123087503015995,0.0367944240570068,0.0019120599608868,jumping
1783090639010512400,0.250512451171875,-0.612445669400692,-0.4246232964143157,-0.1690145044028758,0.0254735592752695,0.1413957625627517,0.0035814323928207,jumping
1783090639020556500,0.260556640625,-0.4064342903815209,-0.296828691150248,-0.1439683259516954,0.0959056466817855,0.1806294471025467,-0.0103088160976767,jumping
1783090639030601200,0.270601318359375,-0.3559513267263769,-0.2405947627529501,-0.0207990424007177,0.2239513099193573,0.1703240126371383,-0.026715038344264,jumping
1783090639040645400,0.280645263671875,-0.4072255868896842,-0.2221633262664079,0.3031061639845371,0.3643760681152344,0.1664001196622848,-0.0253131501376628,jumping
1783090639050690300,0.290690185546875,-0.2086453807845711,-0.0756496997460722,1.099872043469548,0.4294231832027435,0.2069718390703201,0.0017825885443016,jumping
1783090639060734200,0.300734130859375,0.2302783897913992,-0.0812947198957204,2.3313661415368316,0.3999515771865845,0.2483296692371368,0.0423435978591442,jumping
1783090639070779400,0.310779296875,0.4919244161404669,-0.245423498083651,3.603431319445371,0.31014284491539,0.2265227138996124,0.0856846123933792,jumping
1783090639080823300,0.3208232421875,0.8595544902227819,-0.4456403654798865,4.73019604601562,0.1899911314249038,0.1418440490961074,0.0997964367270469,jumping
1783090639090868500,0.330868408203125,0.9236568869728594,-0.4496823343470692,5.634426859441399,0.100584901869297,-0.0088377520442008,0.1051929295063018,jumping
1783090639100912400,0.340912353515625,0.2674541281059384,-0.1232043548643588,5.998038637793064,0.0353568978607654,-0.1607306003570556,0.1272505521774292,jumping
1783090639110957300,0.350957275390625,-0.462892529053986,0.1636179060563445,6.07992021766603,0.0133755831047892,-0.2743029296398163,0.2158568203449249,jumping
1783090639121001500,0.36100146484375,-0.8835136040896177,-0.0068003276646137,6.2660010076820845,0.0742764845490455,-0.3415128588676452,0.3382788598537445,jumping
1783090639131046400,0.37104638671875,-0.8645974528260528,-0.2443596682444214,6.4121899322927,0.1948858797550201,-0.4124692976474762,0.4302042424678802,jumping
1783090639141090300,0.38109033203125,-0.5231424150943755,-0.4790773556575178,6.2715568882435555,0.2867894172668457,-0.4713081121444702,0.4703743159770965,jumping
1783090639151135500,0.391135498046875,-0.4445006939254701,-0.4270274349465966,5.8257689309865235,0.2791851162910461,-0.5182064175605774,0.4936484396457672,jumping
1783090639161179400,0.401179443359375,-0.4609552773810922,-0.0885435219801962,5.097031462588906,0.2468559741973877,-0.5498793721199036,0.542431116104126,jumping
1783090639171224300,0.411224365234375,-0.0679769731611013,-0.0025811025343835,4.528969709315896,0.2515668272972107,-0.6203230619430542,0.6247274875640869,jumping
1783090639181268500,0.4212685546875,0.4287194796867668,-0.0046587855912744,3.705616267156601,0.3229496479034424,-0.7143211960792542,0.7031871676445007,jumping
1783090639191313200,0.431313232421875,0.9555397065110504,0.2004478996731341,2.598742235970497,0.3987288177013397,-0.7868839502334595,0.7819620966911316,jumping
1783090639201357300,0.441357421875,1.094798539597541,0.1313959907568991,1.3181874621361491,0.4445511698722839,-0.7727851867675781,0.8317165970802307,jumping
1783090639211402500,0.451402587890625,0.6619789311155676,-0.3158110395178198,-0.0807926155924797,0.4938699901103973,-0.5874341130256653,0.8163845539093018,jumping
1783090639221446400,0.4614462890625,0.3013952684134244,-1.02652711353451,-1.1089245339751244,0.5753398537635803,-0.2805367112159729,0.7441364526748657,jumping
1783090639231491300,0.4714912109375,-0.2661294553734362,-1.683937713821232,-1.5741875915527344,0.6554560661315918,0.0701529681682586,0.5700300335884094,jumping
1783090639241535500,0.481535400390625,-0.934415669939667,-1.561615256357938,-1.9320652101665736,0.6857002377510071,0.4247978627681732,0.307140588760376,jumping
1783090639251580400,0.491580322265625,-1.2992061366818846,-0.5299424504980444,-2.885009493356943,0.620750904083252,0.7557586431503296,0.0884414836764335,jumping
1783090639261624300,0.501624267578125,-1.4370399054013192,-0.1713381250448525,-4.900626262435317,0.4674436748027801,1.0660637617111206,-0.0969616621732711,jumping
1783090639271669500,0.51166943359375,-2.00822870465368,-0.650819823719561,-8.434995151570439,0.3043791949748993,1.4204661846160889,-0.3072766959667206,jumping
1783090639281713400,0.52171337890625,-2.271970826499164,-2.0348472469881176,-11.678974150431156,0.1635818630456924,1.7863799333572388,-0.5428740382194519,jumping
1783090639291758300,0.53175830078125,-1.6453952171981334,-3.049650020459294,-12.693909902632235,0.0311201140284538,1.8059723377227783,-0.790619432926178,jumping
1783090639301803300,0.54180322265625,-1.2070423053126782,-2.523979548192024,-12.87432141484022,-0.012909660115838,1.4366382360458374,-0.9208868741989136,jumping
1783090639311847400,0.551847412109375,-1.2341193320043384,-1.779637098905444,-12.819037334513665,0.0779096037149429,0.8566200137138367,-0.8935084939002991,jumping
1783090639321892400,0.561892333984375,-1.464833482864499,-0.9407608011826872,-12.467912697291371,0.2698862254619598,0.1354435086250305,-0.7657145857810974,jumping
1783090639331936300,0.571936279296875,-1.3769088234350084,0.0181099494472146,-12.663818715751171,0.4558108448982239,-0.5430951118469238,-0.6109331250190735,jumping
1783090639341981400,0.5819814453125,-1.2221747733190655,1.193749912215024,-13.339721250540018,0.5300883054733276,-0.957011342048645,-0.4433215260505676,jumping
1783090639352025300,0.592025390625,-0.8699434169638901,2.2815939564995467,-13.404770353555678,0.4661095440387726,-1.2170590162277222,-0.2468388527631759,jumping
1783090639362070300,0.6020703125,-0.7657171726834029,2.7108810069411993,-12.853711173009872,0.365323543548584,-1.3900973796844482,-0.0392877832055091,jumping
1783090639372114400,0.612114501953125,-0.761115451041609,2.544168349739909,-11.66658462445736,0.2897725701332092,-1.514329433441162,0.1174896657466888,jumping
1783090639382159400,0.622159423828125,-0.8084640621937811,1.782487958291918,-10.206173049688338,0.2712566554546356,-1.6045019626617432,0.1560852527618408,jumping
1783090639392203300,0.632203369140625,-1.3061736376069486,0.7192109306395054,-9.322104734325409,0.2867998778820038,-1.553982496261597,0.0956460982561111,jumping
1783090639402248400,0.64224853515625,-1.174944966240972,0.2459022215113043,-8.59139333550632,0.2945976257324219,-1.3962149620056152,0.0464798770844936,jumping
1783090639412292600,0.652292724609375,-0.8843940401859581,0.1754763938933611,-8.095515943956375,0.2751267850399017,-1.1391382217407229,0.0252188760787248,jumping
1783090639422337300,0.662337158203125,-0.708610918430984,0.50128568033427,-7.60653883331418,0.1761597394943237,-0.8246365189552307,0.0193322263658046,jumping
1783090639432381400,0.67238134765625,-0.0633436142720282,1.4175152668505906,-6.224716226613522,-0.0239905230700969,-0.58306485414505,0.109025053679943,jumping
1783090639442426400,0.68242626953125,0.538152206569165,2.4701190709277987,-4.326289082154632,-0.2347874492406845,-0.4386477768421173,0.2855907678604126,jumping
1783090639452470300,0.69247021484375,1.2046909929461775,3.3391204578012226,-1.7542267633169888,-0.3842022716999054,-0.3848481476306915,0.5056313872337341,jumping
1783090639462515500,0.702515380859375,1.8231231894105673,3.662673197486997,1.5363988359063865,-0.4293830692768097,-0.4857169687747955,0.7470698356628418,jumping
1783090639472559400,0.712559326171875,1.975432934989035,3.447872508943081,4.4763025334894655,-0.3926503360271454,-0.711300790309906,0.9548295736312866,jumping
1783090639482604300,0.722604248046875,1.8043897012375296,2.977017914968729,6.704834908017515,-0.2951453626155853,-0.9393177032470704,1.093806266784668,jumping
1783090639492648400,0.7326484375,1.4594156955994664,2.397681611226499,9.015987113565206,-0.2022336423397064,-1.176174521446228,1.169089913368225,jumping
1783090639502693400,0.742693359375,1.0288950117096305,1.5688870009265838,10.974246503174305,-0.2011931389570236,-1.3262938261032104,1.1479867696762085,jumping
1783090639512737300,0.7527373046875,0.8600356978684663,1.091021943668276,12.237877614736556,-0.3496070802211761,-1.3949851989746094,1.0578656196594238,jumping
1783090639522782200,0.7627822265625,1.5913620137155056,1.1331028435505923,12.953757939648629,-0.5980011820793152,-1.4462203979492188,1.0091015100479126,jumping
1783090639532826400,0.772826416015625,2.767646850258112,0.9360033775225282,12.917473158824444,-0.7990995645523071,-1.561773419380188,1.015292048454285,jumping
1783090639542871600,0.78287158203125,3.692930388584733,0.2060322756767272,12.375782695126532,-0.8576778769493103,-1.7225306034088137,1.0073214769363403,jumping
1783090639552915500,0.79291552734375,4.2068432030409575,-0.8554160752438008,11.654182239001988,-0.8111069798469543,-1.8572282791137695,0.9219651222229004,jumping
1783090639562960400,0.80296044921875,4.4592850554540755,-1.8882880277603864,10.86862339770794,-0.6977588534355164,-1.8896150588989256,0.7635930776596069,jumping
1783090639573004500,0.813004638671875,4.5174525822624565,-2.7281480758234857,10.234666153723,-0.5525403618812561,-1.7951171398162842,0.5634398460388184,jumping
1783090639583049200,0.82304931640625,4.748348957821727,-3.3148815040796995,9.734636903190612,-0.392542690038681,-1.6014139652252195,0.3474662899971008,jumping
1783090639593093400,0.83309326171875,4.863368252664804,-3.4417876360714432,9.316512028884889,-0.2305490672588348,-1.3297615051269531,0.1464233994483947,jumping
1783090639603138600,0.843138671875,4.720612809634209,-3.228247468982637,8.80307209263742,-0.0641329288482666,-1.0121054649353027,-0.0382979847490787,jumping
1783090639613182200,0.85318212890625,4.421500391460955,-2.871026560711861,8.064473155438899,0.1041662171483039,-0.6066336631774902,-0.2036241888999939,jumping
1783090639623227400,0.863227294921875,4.085013935922086,-2.4924396238073707,7.302557055538892,0.2307380139827728,-0.1255951523780822,-0.3301105201244354,jumping
1783090639633271600,0.873271484375,3.7177255148842927,-2.274046463729441,6.715928548961878,0.3197889626026153,0.4327191114425659,-0.4259967803955078,jumping
1783090639643316200,0.883316162109375,3.4070553453862664,-2.065197377066314,6.584212970861792,0.3570758998394012,1.0339597463607788,-0.4970491230487823,jumping
1783090639653360400,0.8933603515625,3.216228822147846,-1.971335436542332,6.802334912782907,0.3321763575077057,1.596055269241333,-0.551434338092804,jumping
1783090639663405300,0.9034052734375,3.190497876302898,-1.8345983770184215,7.017544766649603,0.2514892220497131,2.0106241703033447,-0.5545986890792847,jumping
1783090639673449200,0.91344921875,3.232249690361321,-1.7639418093845247,6.9953194908380505,0.1710462123155594,2.255610704421997,-0.5194522738456726,jumping
1783090639683494400,0.923494384765625,3.515945343694091,-1.8182421393707393,7.024322297960519,0.1517505347728729,2.242853879928589,-0.5023609399795532,jumping
1783090639693538300,0.933538330078125,3.6451232200101016,-1.8847966785132884,7.076828145745396,0.1959047317504882,2.054168939590454,-0.5032866597175598,jumping
1783090639703583500,0.94358349609375,2.9576956671223043,-1.8425567886769771,7.511331907922029,0.2250421047210693,1.8062655925750732,-0.5533069372177124,jumping
1783090639713628400,0.95362841796875,1.8334467227652669,-1.813198299984634,8.224012560009957,0.1661073714494705,1.6363165378570557,-0.6239964365959167,jumping
1783090639723672300,0.96367236328125,0.6203519124805927,-1.3252541856519875,8.047960412055254,0.0782914981245994,1.7092528343200684,-0.6332783699035645,jumping
1783090639733717500,0.973717529296875,0.8001783182770014,0.075969140958786,7.712804328337311,0.0574835203588008,1.7933335304260254,-0.4692609906196594,jumping
1783090639743761400,0.983761474609375,1.296711689517647,0.8930847116418182,7.249632690081,0.1360986977815628,1.6731849908828735,-0.2954990565776825,jumping
1783090639753806300,0.993806396484375,1.3759021306104957,1.5050509269624948,5.8191240861445666,0.2262150943279266,1.415096640586853,-0.0920972824096679,jumping
1783090639763850500,1.0038505859375,1.9659318239331245,2.769223890316486,3.203319071692228,0.2442462891340255,1.103624701499939,0.2319457679986953,jumping
1783090639773895200,1.013895263671875,2.685172272928059,3.2639611719205974,0.2279635369777679,0.2171357125043869,0.842433512210846,0.5581984519958496,jumping
1783090639783939300,1.023939208984375,-0.5047546716190874,2.948874647285044,-3.587459843331575,0.1588327288627624,1.0298407077789309,0.7215900421142578,jumping
1783090639793984500,1.033984619140625,-3.565455516794324,2.46891349453032,-6.833609171968698,-0.02043760381639,1.7996151447296145,0.8776795864105225,jumping
1783090639804028200,1.044028076171875,-2.0230469190791247,1.8985398110531269,-6.687033878389,-0.283638060092926,2.4479048252105713,1.0779354572296145,jumping
1783090639814073000,1.054072998046875,-0.0935702641010284,0.8512100018560886,-6.465383762341737,-0.3651512563228607,2.694023370742798,1.052647352218628,jumping
1783090639824117200,1.0641171875,-0.0927725378520786,-3.145211750638485,-8.97783829243481,-0.1418310552835464,2.8284246921539307,0.5620378851890564,jumping
1783090639834162200,1.074162109375,-0.4102072330489754,-6.480920938691496,-11.404852088868616,0.2698134481906891,2.7581801414489746,-0.2150890827178955,jumping
1783090639844206000,1.0842060546875,-0.3589525543689728,-4.016570806553959,-12.147031222641468,0.5504000782966614,2.340764045715332,-0.7198742628097534,jumping
1783090639854251300,1.094251220703125,-1.7942213584445417,-1.1683229177527128,-13.170143267035485,0.6339636445045471,1.920839786529541,-1.0132511854171753,jumping
1783090639864295200,1.104295166015625,-3.623257425160706,0.6364885160282254,-13.42291391301155,0.6406737565994263,1.6213114261627195,-1.2773643732070925,jumping
1783090639874340000,1.114340087890625,-3.783605515766144,2.2205523355595767,-11.00077210652828,0.5579148530960083,0.9321868419647216,-1.4332749843597412,jumping
1783090639884384300,1.12438427734375,-3.0631051298379894,2.533765613669157,-10.52161847076416,0.4290910959243774,0.0723005831241607,-1.4915207624435425,jumping
1783090639894429200,1.13442919921875,-2.3253557952061295,1.4984379385635256,-11.84517242836952,0.3107612133026123,-0.8052237629890442,-1.477282166481018,jumping
1783090639904473000,1.14447314453125,-0.6146420834664255,0.5865519342094659,-13.428309050053358,0.255864143371582,-1.6971909999847412,-1.2778170108795166,jumping
1783090639914518000,1.15451806640625,1.1206526734307407,0.2013128459393978,-16.67761012071967,0.3990886509418487,-2.195098876953125,-0.9745587110519408,jumping
1783090639924562200,1.164562255859375,1.5993427833363414,0.6588771657079457,-19.292398651605843,0.6305850148200989,-2.240250587463379,-0.676201581954956,jumping
1783090639934607000,1.174607177734375,0.8950503126263618,1.167219486555457,-19.41610803338289,0.7196809649467468,-1.98478102684021,-0.4055016636848449,jumping
1783090639944651000,1.184651123046875,-0.476561281183362,1.5139095023311673,-17.950863631629943,0.5413181781768799,-1.5157995223999023,-0.1843341141939163,jumping
1783090639954696200,1.1946962890625,-2.108495251522958,1.1820210421070456,-15.45688876107931,0.2019288837909698,-0.9505845308303832,-0.1424417942762375,jumping
1783090639964740000,1.204739990234375,-3.2320793022304772,1.4451254505708813,-12.743923933601378,-0.1919015049934387,-0.4609685242176056,-0.2333272248506546,jumping
1783090639974785000,1.214784912109375,-3.0359435666680334,2.059264626016468,-11.234922223186492,-0.5262899994850159,-0.0253630355000495,-0.2969284951686859,jumping
1783090639984829200,1.2248291015625,-1.831690088356286,2.002617586773634,-10.995468154901266,-0.7023875117301941,0.2535271942615509,-0.3902051746845245,jumping
1783090639994874000,1.2348740234375,-0.5447475131809711,1.7177911758452653,-11.342060409390928,-0.7616659998893738,0.3591351211071014,-0.4916059672832489,jumping
1783090640004918000,1.24491796875,0.3188511378660797,1.246353229025006,-11.284362253659962,-0.8094492554664612,0.2942072451114654,-0.5305235385894775,jumping
1783090640014963200,1.254963134765625,0.558280729297176,0.624164310375601,-9.74515712816119,-0.8665828108787537,0.0281950198113918,-0.5733828544616699,jumping
1783090640025007000,1.265007080078125,0.5812734092846512,0.5411050650253891,-7.129902733328938,-0.8388987183570862,-0.4659998118877411,-0.6256782412528992,jumping
1783090640035052000,1.275052001953125,0.5016018336113542,0.8742651526205241,-4.741401915162801,-0.5231530666351318,-1.027927279472351,-0.6257088780403137,jumping
1783090640045096200,1.28509619140625,0.8044858062125742,0.7519502939417958,-2.0764017849087715,-0.0922050923109054,-1.4080506563186646,-0.553056538105011,jumping
1783090640055141000,1.29514111328125,1.1322680001616476,0.2387767535455524,1.4656611658602952,0.1851100921630859,-1.6951020956039429,-0.5153007507324219,jumping
1783090640065185000,1.30518505859375,1.4565309339433907,0.1990576143585145,5.139847106486559,0.2428913712501526,-1.9621082544326784,-0.5396713614463806,jumping
1783090640075230200,1.315230224609375,2.0279348372511565,0.2959624297097325,8.299615790265799,0.1771356612443924,-2.1796138286590576,-0.5896621942520142,jumping
1783090640085274000,1.325274169921875,2.2486159621357915,0.1561572147868573,10.538134721279144,0.0691902935504913,-2.3870725631713867,-0.6524917483329773,jumping
1783090640095319000,1.335319091796875,2.357954434863478,0.0981932477265596,11.703073987942933,-0.017004482448101,-2.579617500305176,-0.70755535364151,jumping
1783090640105363200,1.34536328125,2.8377251796126366,-0.3343962052613496,12.45904199309349,-0.044737309217453,-2.75422739982605,-0.780322253704071,jumping
1783090640115408100,1.355408203125,3.472715566037595,-0.7851413465343415,13.591335712218283,-0.0015771778998896,-2.9691481590270996,-0.8822991251945496,jumping
1783090640125452000,1.3654521484375,3.7831446202561256,-0.9977785734340548,14.286027118629216,0.0962588414549827,-3.1405646800994873,-0.9912389516830444,jumping
1783090640135497200,1.375497314453125,3.9489141513884065,-0.7903571814864874,13.839385759413242,0.2515838146209717,-3.146279811859131,-1.015589952468872,jumping
1783090640145541000,1.385541015625,4.384987062577903,-0.3700064478248357,12.626734308981897,0.4837659299373626,-2.946141004562378,-0.9215028882026672,jumping
1783090640155586300,1.39558642578125,5.09756396203041,0.2939525511920452,11.862530390405654,0.7654067277908325,-2.753175735473633,-0.6984679698944092,jumping
1783090640165630200,1.405630126953125,5.525566671749949,0.744270699224621,10.932754801356792,1.04564368724823,-2.5266919136047363,-0.3984798789024353,jumping
1783090640175675100,1.415675048828125,5.694259104591608,0.960906932632625,9.914178646826745,1.3068820238113403,-2.167755365371704,-0.05842175334692,jumping
1783090640185719000,1.425718994140625,6.288287658292055,1.0412298848867416,9.030793637552858,1.5248050689697266,-1.6574476957321167,0.2349616587162017,jumping
1783090640195764000,1.435763916015625,6.386461616796255,1.0600295701637863,8.255294417980313,1.579275369644165,-1.0569158792495728,0.4540503323078155,jumping
1783090640205808000,1.44580810546875,5.957230242064595,0.9057513009913264,7.269243399479984,1.3915632963180542,-0.3104230761528015,0.6029687523841858,jumping
1783090640215853300,1.455853271484375,5.055082080131769,0.6364947265733033,6.586047200551628,0.9250551462173462,0.4825713336467743,0.6969732642173767,jumping
1783090640225897000,1.46589697265625,3.6363764344528313,-0.1889506463639438,6.846499633201956,0.2490487247705459,1.1831775903701782,0.732138454914093,jumping
1783090640235942100,1.475942138671875,2.517500999827683,-1.2292026261292397,7.316243051064014,-0.3759661018848419,1.7835127115249634,0.7660912275314331,jumping
1783090640245986300,1.485986328125,2.3033695888474583,-1.7294655392870306,7.460178643789887,-0.7899729013442993,2.1418261528015137,0.8451650142669678,jumping
1783090640256031000,1.496031005859375,2.801958869704604,-1.7210050233252343,7.2207450337708,-0.9293496012687684,2.197448968887329,0.937984049320221,jumping
1783090640266075100,1.5060751953125,3.412666755527258,-1.4845909072577952,7.161857375994324,-0.8115782141685486,2.0047545433044434,1.0154987573623655,jumping
1783090640276120000,1.5161201171875,3.717761462980509,-1.3735991143651305,7.570348160514235,-0.5201938152313232,1.6284037828445437,1.067781686782837,jumping
1783090640286164000,1.5261640625,3.911464126177132,-1.6011508556716143,8.110604792016744,-0.1732771694660186,1.2112808227539062,1.1197309494018557,jumping
1783090640296209200,1.536209228515625,3.869634278446436,-2.1581670449256896,8.564421157428622,0.1449197977781295,0.9349443316459656,1.1420750617980957,jumping
1783090640306254000,1.546254150390625,3.840987737415731,-2.5519483360916375,9.025295040136577,0.3594398200511932,0.8191857933998108,1.084648609161377,jumping
1783090640316298000,1.556298095703125,4.124968052908778,-2.513463122613728,9.556801378950476,0.4462461769580841,0.7680851221084595,0.9397284984588624,jumping
1783090640326343200,1.56634326171875,3.8863428366631263,-1.5923865344576538,9.77710767917335,0.3918803930282593,0.6878694295883179,0.7797548174858093,jumping
1783090640336387000,1.576386962890625,3.493014842222631,-0.5250283749714494,9.841295781445504,0.219718798995018,0.5720697641372681,0.6660563349723816,jumping
1783090640346432300,1.586432373046875,2.686625102084875,0.0648306379593908,9.646139120048284,0.0402672924101352,0.3528231978416443,0.621646523475647,jumping
1783090640356476200,1.59647607421875,1.5946312446445223,0.9495916117615996,8.049931419867276,-0.0021836753003299,0.1729277521371841,0.6925311088562012,jumping
1783090640366521000,1.60652099609375,1.0984247672706842,2.1774850549884137,6.047865621757507,0.1017813384532928,0.1310024112462997,0.845940113067627,jumping
1783090640376565200,1.616565185546875,0.5392094605371356,3.065047496077418,4.173977875271439,0.3222132921218872,0.2921889722347259,0.9992588758468628,jumping
1783090640386610000,1.62660986328125,1.0836939388677478,3.950339800277352,2.50250187587738,0.4766958057880401,0.6870183348655701,1.211355447769165,jumping
1783090640396654000,1.636654052734375,2.732705885258317,4.435599643962085,1.369123284125328,0.4283373653888702,1.1279494762420654,1.4228620529174805,jumping
1783090640406699300,1.64669921875,2.83568578273952,4.584814638395607,0.4022983596205711,0.1800881326198578,1.4464564323425293,1.5584577322006226,jumping
1783090640416743200,1.6567431640625,-0.2956844895511865,3.6329037899062033,-2.3128525797247885,-0.1470588892698288,1.8939589262008667,1.5187679529190063,jumping
1783090640426788000,1.6667880859375,-2.0806699637472628,3.141598236316442,-5.855622217458486,-0.3629333972930908,2.578320264816284,1.5518712997436523,jumping
1783090640436832300,1.676832275390625,-2.170996277491003,2.340877481725812,-9.053498221313951,-0.2695081830024719,3.21671462059021,1.5147579908370972,jumping
1783090640446877200,1.686877197265625,-2.8265672412604093,2.0495760295644403,-13.59738551377654,0.0213207304477691,4.030108451843262,1.3011459112167358,jumping
1783090640456921000,1.696921142578125,-4.4459377903640265,-0.0408167251653969,-17.82684328420758,0.2350592315196991,5.217586040496826,0.7897524237632751,jumping
1783090640466966300,1.70696630859375,-4.764188916510343,-5.110939576432108,-16.288993080449103,0.3118698894977569,5.737371921539307,-0.0987084731459617,jumping
1783090640477010000,1.717010009765625,-2.729218335403502,-5.540874130997062,-13.22140349867344,0.4347469210624695,5.353451251983643,-1.0695682764053345,jumping
1783090640487055000,1.72705517578125,-2.3457769442051646,-4.035508146736025,-13.189965573358537,0.3466830849647522,4.182238578796387,-1.7811225652694702,jumping
1783090640497099300,1.737099365234375,-2.321685582260787,-2.086818549504876,-14.06714354468584,0.0024637221358716,2.5461301803588867,-2.1229758262634277,jumping
1783090640507144200,1.747144287109375,-1.745395368216187,0.3161557613022625,-15.129755240297316,-0.2652675807476043,1.0733033418655396,-2.22847318649292,jumping
1783090640517188000,1.75718798828125,-1.4577952547907829,1.141671642192453,-14.298055410075186,-0.3023478090763092,-0.3846068084239959,-2.231595039367676,jumping
1783090640527233000,1.76723291015625,-1.6931676067203285,0.2232717258997261,-15.156577780771254,-0.277707427740097,-1.4336332082748413,-2.270899772644043,jumping
1783090640537277200,1.777277099609375,-1.611403515747189,-0.756781221229583,-15.59477279868126,-0.5601638555526733,-1.8990041017532349,-2.295300006866455,jumping
1783090640547322000,1.787322021484375,-2.3014649242699146,-0.1181200373373925,-14.603491478312014,-0.2972597777843475,-2.2201404571533203,-2.122771978378296,jumping
1783090640557366000,1.797365966796875,-1.5946305139921604,2.2561320368543267,-18.663316320180893,0.0553622171282768,-1.8661586046218872,-1.6879903078079224,jumping
1783090640567411200,1.8074111328125,-0.348929465265572,2.649600901070237,-19.406864404219387,0.2610288262367248,-1.059703707695007,-1.2033376693725586,jumping
1783090640577455000,1.817455078125,-0.0752640979619696,1.7011410698175429,-19.578262588888407,0.1958879083395004,0.0281530134379863,-0.8095362782478333,jumping
1783090640587500000,1.8275,-0.4424102609848603,0.4809142156958579,-17.791513612151146,-0.1502159684896469,1.0009007453918457,-0.5717293620109558,jumping
1783090640597544200,1.837544189453125,-1.041281542008743,-0.6151169344365597,-14.499128602039812,-0.5086000561714172,1.6039494276046753,-0.4727223515510559,jumping
1783090640607589000,1.847589111328125,-1.0658544769249856,-0.8533113580495119,-12.112832015919684,-0.6192554235458374,1.9327237606048584,-0.481977105140686,jumping
1783090640617633000,1.857633056640625,-0.4367890235695987,-0.1122774487890303,-10.277946492522954,-0.5359350442886353,1.9725910425186155,-0.4898328483104706,jumping
1783090640627678200,1.86767822265625,0.4609275491239503,0.7563584657728671,-7.90277569605112,-0.4828536808490753,1.4992018938064575,-0.4791844487190246,jumping
1783090640637722000,1.87772216796875,0.7516670200210064,1.182559679028392,-5.834478307142853,-0.5097083449363708,0.6117257475852966,-0.4545586705207824,jumping
1783090640647767000,1.88776708984375,0.9002527035750448,1.049064231774211,-3.3005858522236347,-0.4712792038917541,-0.4697355329990387,-0.4481628239154815,jumping
1783090640657811200,1.897811279296875,0.6602841098964214,1.181687133977562,-0.467269721224904,-0.361655592918396,-1.5222415924072266,-0.4491998553276062,jumping
1783090640667856100,1.907856201171875,0.1476358902822248,1.3895228058144449,2.457712301558256,-0.2825370728969574,-2.397287130355835,-0.4807532727718353,jumping
1783090640677900000,1.917900146484375,0.2787301398798823,1.2126551036931574,4.948735921087861,-0.2637304663658142,-3.020078182220459,-0.4980774223804474,jumping
1783090640687945200,1.9279453125,0.994252956591174,0.963107657547295,6.413857573243975,-0.2629743814468384,-3.3041481971740723,-0.4969303905963897,jumping
1783090640697989000,1.937989013671875,1.827106267697364,1.4401022155813872,7.947307496216893,-0.1663609445095062,-3.362001895904541,-0.4528887271881103,jumping
1783090640708034000,1.948033935546875,2.5942785345599053,1.6672041672937572,9.931302800107002,0.0097834700718522,-3.3254010677337646,-0.376549482345581,jumping
1783090640718078200,1.958078125,2.908338346496224,1.3574893988244234,11.821535532194376,0.1978494077920913,-3.041780948638916,-0.2613118886947632,jumping
1783090640728123100,1.968123046875,3.2376436583593486,0.9634418579377232,13.927746764433383,0.258491188287735,-2.780367851257324,-0.1478910595178604,jumping
1783090640738167000,1.9781669921875,3.9125019447922704,0.8656896319769323,15.98380952566862,0.0880494266748428,-2.792053461074829,-0.0471929013729095,jumping
1783090640748212200,1.988212158203125,4.3093309330910445,0.9009066374391316,16.61306136844158,-0.1909486502408981,-2.906241655349731,0.1002583354711532,jumping
1783090640758256000,1.998256103515625,4.139511249785125,0.79570014994964,15.786638601839542,-0.4479454159736633,-2.8592307567596436,0.2684585452079773,jumping
1783090640768301000,2.008301025390625,3.978501480400562,0.4018158368006348,14.26747907002568,-0.6003192663192749,-2.603468418121338,0.4409171342849731,jumping
1783090640778345200,2.01834521484375,4.147079639212787,-0.3007417729407549,12.528132480454444,-0.6312171816825867,-2.2524356842041016,0.5977320671081543,jumping
1783090640788390100,2.02839013671875,3.746687113213539,-0.9105787211477756,10.528271498912572,-0.5750548243522644,-1.7308759689331057,0.7372646331787109,jumping
1783090640798434000,2.03843408203125,3.268371681839227,-1.919441583175957,8.77009687475264,-0.4392418265342712,-0.9949120283126832,0.7748607397079468,jumping
1783090640808479000,2.04847900390625,2.7925390071913596,-3.2340704760476946,7.1409905290544025,-0.2525672912597656,-0.0881664007902145,0.6160691976547241,jumping
1783090640818523400,2.0585234375,1.967514416949451,-3.723803081232309,5.776443466803431,-0.0523062609136104,0.9327418208122252,0.3667226433753967,jumping
1783090640828568600,2.068568603515625,1.4173714744657278,-3.722478846891224,5.046075766855478,0.1033411175012588,2.007667064666748,0.137076124548912,jumping
1783090640838612200,2.0786123046875,1.2614821168348191,-3.632378304727375,4.817339491939545,0.1693631559610366,2.9964630603790283,-0.0858364999294281,jumping
1783090640848657400,2.088657470703125,1.4553727038189768,-3.1071468083992597,5.227258847957849,0.1463193595409393,3.6990365982055664,-0.2659937441349029,jumping
1783090640858701600,2.09870166015625,1.512575184987485,-3.4264415983796117,5.9676972755432125,-0.0512266159057617,4.103917598724365,-0.4900956451892853,jumping
1783090640868746500,2.10874658203125,1.2570301058620217,-4.4615842723071575,8.239981698036193,-0.3538781106472015,3.918334007263184,-0.7655317783355713,jumping
1783090640878790400,2.118790283203125,0.4117641071021556,-3.569086566773057,10.1182141957283,-0.5332709550857544,3.39275860786438,-0.8122126460075378,jumping
1783090640888835300,2.12883544921875,0.5867148696862161,-3.379287048494815,10.97906763972044,-0.6169453859329224,2.4519221782684326,-0.812649130821228,jumping
1783090640898879500,2.13887939453125,0.7959137927003205,-3.763077107000351,10.451658214831353,-0.5989258289337158,1.3531314134597778,-0.7921693921089172,jumping
1783090640908924400,2.14892431640625,0.8085059285741298,-3.5463989341467617,9.329666109490391,-0.4847965538501739,0.4664068222045898,-0.7209500670433044,jumping
1783090640918968300,2.15896826171875,0.755212656738609,-2.8132933336675165,8.385228957882523,-0.2570972442626953,-0.1853184700012207,-0.5631142258644104,jumping
1783090640929013500,2.169013427734375,0.8941269141711294,-2.2001991372302174,7.3422998678624625,-0.0161802135407924,-0.418976753950119,-0.3996663987636566,jumping
1783090640939057400,2.179057373046875,0.9613274961322544,-1.0530115080952644,7.723766451856494,0.1878877729177475,-0.4819063544273376,-0.2220025807619094,jumping
1783090640949102300,2.189102294921875,0.6804887666005641,-0.0510141479223966,8.400082828143239,0.3048692643642425,-0.3743047714233398,0.027628282085061,jumping
1783090640959146500,2.199146484375,1.634455890032649,0.8412821898207068,8.742928297320008,0.4192873537540436,-0.1810703724622726,0.36312136054039,jumping
1783090640969191400,2.20919140625,3.4694106792733073,2.6023633490771054,8.313131105399131,0.2924119532108307,-0.3350301086902618,0.7862949967384338,jumping
1783090640979235300,2.2192353515625,3.4310724730506537,2.804038306327164,6.375719858029484,0.0801290869712829,-0.5606133937835693,1.1583787202835083,jumping
1783090640989280500,2.229280517578125,2.081151755914837,3.2255197975844143,2.7856559696793552,-0.0764607936143875,-0.4838818907737732,1.4790366888046265,jumping
1783090640999324400,2.239324462890625,2.344740148503333,3.764372407507896,0.4064712613910436,-0.0848412290215492,-0.2529840171337127,1.7874388694763184,jumping
1783090641009369300,2.249369384765625,2.200036494014412,2.0209113683551547,-1.7636662073135374,0.1150124967098236,0.1747585088014602,1.84516441822052,jumping
1783090641019413500,2.25941357421875,-0.3308102365333586,1.0660960305958986,-5.474195965474844,0.3161377012729645,1.0859962701797483,1.7433027029037476,jumping
1783090641029458400,2.26945849609375,-1.0730516218874604,1.6809955228894948,-8.379442191174626,0.3574406802654266,2.2702035903930664,1.6829867362976074,jumping
1783090641039502300,2.27950244140625,-0.8632366858668625,3.5573952521964904,-11.856004788029193,0.2648902833461761,3.553152084350586,1.7369415760040283,jumping
1783090641049547500,2.289547607421875,1.5741605574153363,5.5834355078727,-16.427387990182638,0.1966159045696258,5.000604629516602,1.953563570976257,jumping
1783090641059591400,2.29959130859375,3.637742169848084,0.2479591540411114,-17.13621547397375,0.0165794137865304,5.715794563293457,1.6470736265182495,jumping
1783090641069636400,2.30963623046875,1.597429643191397,-7.585752650395035,-15.200018278568985,0.0113891810178756,5.181936264038086,0.6773974299430847,jumping
1783090641079680500,2.319680419921875,3.323920550581813,-3.833723007109761,-11.908494853723049,0.084394946694374,3.803990125656128,0.3671135008335113,jumping
1783090641089725400,2.329725341796875,1.1099199747532609,-1.6947370479941366,-10.135371082234382,0.4897064864635467,2.321547508239746,0.4501649737358093,jumping
1783090641099769300,2.339769287109375,-1.4308067101001738,-1.2616086658239365,-7.587239674082398,1.0548875331878662,1.1897273063659668,0.2292223274707794,jumping
1783090641109814500,2.349814453125,-2.2300962628439067,0.3231958890721201,-5.698370631563663,0.9877599477767944,0.3985495269298553,-0.0240605399012565,jumping
1783090641119858400,2.3598583984375,-2.045679606647789,1.9469816242694853,-4.771311900258064,0.5369447469711304,-0.1239610835909843,-0.0341961607336998,jumping
1783090641129903400,2.3699033203125,-1.3988210877746343,2.5867209587872027,-5.193289358338713,0.0074505815282464,-0.5814609527587891,-0.0656361132860183,jumping
1783090641139947500,2.379947509765625,-0.3919435543447733,1.5867606573998927,-8.42527630611062,-0.4760200977325439,-1.0090727806091309,-0.111708179116249,jumping
1783090641149992400,2.389992431640625,1.080429822505265,0.6514937774583697,-11.501022306334972,-0.6443009972572327,-1.5934598445892334,-0.1637636572122573,jumping
1783090641160036400,2.400036376953125,2.6352450434595345,1.2543205546423792,-14.22538764874935,-0.4634167551994324,-2.2661311626434326,-0.1739337593317031,jumping
1783090641170081300,2.410081298828125,4.008449459418654,2.1268422245964405,-16.517372797012328,-0.127251535654068,-2.74050235748291,-0.1547004133462906,jumping
1783090641180125400,2.42012548828125,4.200447656784951,2.2196564096331595,-17.80159076952934,0.0177892781794071,-2.877133369445801,-0.1900853961706161,jumping
1783090641190170600,2.430170654296875,3.081540365716815,1.694923218216002,-18.1891089086473,-0.0827192217111587,-2.642385482788086,-0.2670336961746216,jumping
1783090641200214300,2.44021435546875,1.1517657507054506,2.1339710535630583,-16.07208402144909,-0.1486983001232147,-2.4624011516571045,-0.2924708724021911,jumping
1783090641210259500,2.450259521484375,-0.1119372570492327,2.698501710100472,-14.041511090779304,-0.0700032263994216,-2.3512120246887207,-0.2877736091613769,jumping
1783090641220303600,2.4603037109375,-0.8633424112636595,2.6517428815349935,-12.514054855263232,-0.0006400519050657,-1.973532557487488,-0.2852034568786621,jumping
1783090641230348300,2.470348388671875,-1.147237532691285,2.873790180206299,-11.435968527144192,-0.1577646881341934,-1.1447957754135132,-0.2744064927101135,jumping
1783090641240392400,2.480392333984375,-0.357910863296315,3.694778062278032,-8.25132726791501,-0.05888157710433,-0.6510289907455444,-0.0886483192443847,jumping
1783090641250437400,2.490437255859375,0.9496292403582482,3.5377918493211267,-6.984795174214243,-0.1493659317493438,-0.345735639333725,-0.0508575364947319,jumping
1783090641260481300,2.500481201171875,2.023272544528544,3.5030358854994175,-4.679444932943582,-0.2983057796955108,-0.3011711835861206,0.1085563227534294,jumping
1783090641270526500,2.5105263671875,2.4310947821371256,3.573535947397351,-1.923084031331539,-0.402381032705307,-0.4924769401550293,0.2734770774841308,jumping
1783090641280570600,2.520570556640625,2.1397049210399386,2.900729917319119,0.4264923051565885,-0.4191343784332275,-0.9333733916282654,0.3939134478569031,jumping
1783090641290615300,2.530615234375,1.427274152059853,1.458650994837284,2.1147224554747344,-0.3034972548484802,-1.4741750955581665,0.3815803527832031,jumping
1783090641300659500,2.540659423828125,0.6566701571829616,-0.0888026113077998,3.125026456221938,-0.162578210234642,-1.8593201637268064,0.2376269102096557,jumping
1783090641310704400,2.550704345703125,0.1730108074974268,-1.2706652479827405,4.509011793914437,-0.0863566845655441,-2.033397436141968,-0.0225032046437263,jumping
1783090641320748300,2.560748291015625,0.295352627248317,-2.0155726376757026,6.67718643811345,-0.0834129676222801,-2.123975992202759,-0.3169974386692047,jumping
1783090641330793500,2.57079345703125,1.551462841786444,-2.081876124666631,8.886725942879915,-0.1671688556671142,-2.238377094268799,-0.5003347992897034,jumping
1783090641340837400,2.58083740234375,2.711283742523193,-2.158925462077558,11.074379779052734,-0.3108724057674408,-2.437389850616455,-0.6506202220916748,jumping
1783090641350882600,2.590882568359375,2.7531670740067957,-2.1035151250228283,13.488195655739307,-0.6115278601646423,-2.9150872230529785,-0.816413164138794,jumping
1783090641360926500,2.600926513671875,2.3516138336651027,-2.2654686049982904,14.333812952154874,-0.953166127204895,-3.1777381896972656,-0.8566200137138367,jumping
1783090641370971400,2.610971435546875,2.256888700440526,-2.5099890167623755,14.236737894803284,-1.0524235963821411,-3.0015194416046143,-0.7888063788414001,jumping
1783090641381015300,2.621015380859375,2.550184833550453,-2.2448308906391263,14.115721989893911,-0.9880205392837524,-2.7820234298706055,-0.7313401103019714,jumping
1783090641391060500,2.631060546875,2.841496514844894,-2.0228651327714324,13.007861285758018,-0.7660852074623108,-2.4242329597473145,-0.598906934261322,jumping
1783090641401104400,2.6411044921875,3.379536347080767,-2.3167165616765617,11.771439668160676,-0.4385627508163452,-1.9532973766326904,-0.4192799627780914,jumping
1783090641411149600,2.651149658203125,3.618916473346948,-2.26328775382787,10.259820468723774,-0.1276144683361053,-1.3792554140090942,-0.2473098188638687,jumping
1783090641421193500,2.661193359375,3.2226457034528253,-2.0154586559072136,8.68156752742827,0.0783898755908012,-0.7002612948417664,-0.0700497478246688,jumping
1783090641431238400,2.67123828125,3.0367043219074605,-2.275055640771985,7.271448800569773,0.1759481281042099,0.0245499666780233,0.0180545449256896,jumping
1783090641441282600,2.681282470703125,2.906941923701763,-2.336649050375819,6.2345677585422985,0.1968390792608261,0.7334352135658264,-0.0082014985382556,jumping
1783090641451327200,2.6913271484375,2.7842800051510332,-2.5003365145370364,5.830609941276908,0.1430892944335937,1.3767566680908203,-0.0520645603537559,jumping
1783090641461371400,2.701371337890625,2.5627783576637504,-3.077686905159056,5.797172366577387,0.04503133893013,1.9045366048812864,-0.0969281271100044,jumping
1783090641471416600,2.71141650390625,2.8051696484446524,-3.729737731978297,6.448360731348395,-0.0714116543531417,2.1941518783569336,-0.1939217895269394,jumping
1783090641481460200,2.721460205078125,2.942107929629087,-3.758628895419836,7.373346163511276,-0.1397445499897003,2.139477252960205,-0.2848237156867981,jumping
1783090641491505400,2.73150537109375,2.361787875546515,-4.008478977774083,8.17650320533812,-0.1521413028240203,1.855136036872864,-0.4179149270057678,jumping
1783090641501549600,2.741549560546875,2.279088403419405,-4.000263522614539,8.925894170185924,-0.1295809596776962,1.4424233436584473,-0.5162225961685181,jumping
1783090641511594500,2.751594482421875,2.2056809296421704,-3.886531637233495,9.01359115833938,-0.0408942252397537,1.0810891389846802,-0.5647784471511841,jumping
1783090641521638400,2.761638427734375,1.966952691413462,-4.079240613217651,9.33746947671771,0.1891461163759231,0.842449963092804,-0.5981215238571167,jumping
1783090641531683300,2.771683349609375,2.1692992643147706,-3.532905538584292,9.707669401288031,0.3815507292747497,0.6975177526473999,-0.5557229518890381,jumping
1783090641541727200,2.781727294921875,2.8279601569235324,-2.693335705639422,9.946641823536156,0.4240213334560394,0.49398073554039,-0.3981387317180633,jumping
1783090641551772400,2.7917724609375,3.653727089965343,-2.1936039767488835,9.715762691372632,0.3635020554065704,0.1660923659801483,-0.1985558420419693,jumping
1783090641561816600,2.801816650390625,4.114813738641143,-1.6349115248456596,8.62264830546975,0.2904521524906158,-0.1846413016319275,0.024606741964817,jumping
1783090641571861500,2.811861572265625,4.070704547801614,-1.002784126636386,7.316562784537672,0.273775964975357,-0.4199478328227997,0.2579955160617828,jumping
1783090641581905400,2.821905517578125,3.367906115041673,0.0029959669455885,6.644560764318705,0.3210574090480804,-0.5574357509613037,0.5345299243927002,jumping
1783090641591950300,2.831950439453125,1.6093424915641543,1.258989130975306,6.4551248186558485,0.3977985382080078,-0.659692108631134,0.868533194065094,jumping
1783090641601994500,2.841994384765625,0.3957537602826952,2.20701933863908,6.1681929598808285,0.3929858803749084,-0.7107151746749878,1.2070101499557495,jumping
1783090641612039400,2.852039306640625,0.5441480859830975,2.8847680858165026,5.16147850805819,0.3034855723381042,-0.7670878767967224,1.4545544385910034,jumping
1783090641622083300,2.862083251953125,0.92438556657359,4.236393707174062,2.982124298197031,0.1042633727192878,-0.6407433152198792,1.688145875930786,jumping
1783090641632128500,2.87212841796875,2.426394349361211,4.977994164276123,0.6080687694907188,-0.0375627391040325,-0.268879234790802,2.019237518310547,jumping
1783090641642172400,2.88217236328125,2.688918765980005,4.783120119212567,-2.0190864910155533,0.0320235677063465,0.2319602817296981,2.3411495685577393,jumping
1783090641652217300,2.89221728515625,1.6946216049209235,3.496962118543684,-4.29714131360352,0.1954764127731323,0.8139603137969971,2.41687536239624,jumping
1783090641662261500,2.902261474609375,-1.5525047520548103,1.0291557084724303,-6.512720098534226,0.2141436338424682,1.4271125793457031,2.2432191371917725,jumping
1783090641672306200,2.91230615234375,-3.706684773170948,-0.1433905260637402,-9.524984683451056,-0.01207513269037,2.1855716705322266,2.0112805366516113,jumping
1783090641682350300,2.922350341796875,-1.2967761330559848,2.02377377204895,-12.887258053302764,-0.4340630769729614,2.877800703048706,2.0992894172668457,jumping
1783090641692395500,2.9323955078125,1.0416329857949167,3.482801491244137,-16.862027945959568,-0.8122345805168152,3.5898711681365967,2.2747597694396973,jumping
1783090641702439400,2.942439453125,1.1365279956936836,-0.6507590334430337,-16.07892526564598,-0.8511009812355042,3.6599278450012207,1.9474265575408936,jumping
1783090641712484400,2.952484375,-1.0832118544392286,-4.828055239482223,-12.590665801256897,-0.4179266393184662,3.0498828887939453,1.137681245803833,jumping
1783090641722528500,2.962528564453125,-4.154316020207107,-4.784950549510121,-10.432679958117008,0.0739689841866493,2.2297420501708984,0.362380713224411,jumping
1783090641732573400,2.972573486328125,-5.052997090551257,-1.748411355036497,-7.965504247164726,0.3961390554904938,1.3931297063827517,-0.0547539442777633,jumping
1783090641742617300,2.982617431640625,-4.1770241110995405,1.2764154820725322,-7.452306302979588,0.5160700678825378,0.9355644583702089,-0.3963721990585327,jumping
1783090641752662500,2.99266259765625,-2.882032815633714,3.646665481016039,-8.599457399496435,0.4042876064777374,0.6540643572807312,-0.5957279205322266,jumping
1783090641762706400,3.00270654296875,-2.2667205047555266,4.4566140826791525,-9.96001100819707,0.2260362207889557,0.2362587302923202,-0.6291450262069702,jumping
1783090641772751400,3.01275146484375,-1.0943603673759847,4.10572530003935,-11.346879207849502,0.1566417068243026,-0.4413860738277435,-0.5669650435447693,jumping
1783090641782795500,3.02279541015625,-0.0670160922396928,3.6308544561609626,-13.512313028907776,0.2615381181240082,-1.1203137636184692,-0.4651087522506714,jumping
1783090641792840400,3.03284033203125,0.5600043382193893,3.221393365304172,-14.653779065525532,0.3539114594459533,-1.6472526788711548,-0.3206538558006286,jumping
1783090641802884400,3.04288427734375,0.5812295336103066,2.7531568448737263,-15.029173051607607,0.2960520982742309,-1.88119637966156,-0.1783418506383896,jumping
1783090641812929300,3.05292919921875,0.0796198637523688,2.543762107026577,-15.222537568891047,0.0765546262264251,-1.789233922958374,-0.1074567586183548,jumping
1783090641822973400,3.062973388671875,-0.9205391933437436,2.080425925858319,-15.205261439919472,-0.233556643128395,-1.3890377283096311,-0.1526550054550171,jumping
1783090641833018600,3.0730185546875,-1.9354339559473095,2.32113963881582,-14.07551740527749,-0.4788151681423187,-0.9534691572189332,-0.2075973451137542,jumping
1783090641843062500,3.0830625,-2.804575481943786,3.120883072806895,-12.715366532158852,-0.5950379967689514,-0.5548639297485352,-0.2163774371147155,jumping
1783090641853107500,3.093107421875,-2.915855297997594,3.4140032648280263,-11.415940469115972,-0.6102709770202637,-0.2971698045730591,-0.1835534572601318,jumping
1783090641863151600,3.103151611328125,-2.259503266853094,2.9557743436709045,-10.809189211964606,-0.4754898846149444,-0.253663033246994,-0.164584681391716,jumping
1783090641873196500,3.113196533203125,-1.293569007577747,2.433970775964856,-10.902536188703774,-0.1826756000518798,-0.2843232154846191,-0.2262701392173767,jumping
1783090641883240400,3.123240478515625,0.1012378761194646,2.54416659617424,-10.101481672114131,0.1073345765471458,-0.417121946811676,-0.3018889129161834,jumping
1783090641893285600,3.13328564453125,0.7027503558345138,2.7823285788223147,-8.861264753887056,0.3067390322685241,-0.4806481897830963,-0.3343674838542938,jumping
1783090641903329500,3.14332958984375,0.7566315836258232,2.9310893997475502,-6.609200112602115,0.3381297290325165,-0.4367525279521942,-0.3190033733844757,jumping
1783090641913374500,3.15337451171875,0.9208476017057896,2.9563989053100346,-3.4399411314219233,0.3010121881961822,-0.3514341711997986,-0.2412054985761642,jumping
1783090641923418600,3.163418701171875,1.0867730540521443,2.821321157300472,-0.1786293049663305,0.2789080142974853,-0.3359998166561126,-0.1275995522737503,jumping
1783090641933463600,3.173463623046875,0.9283029592130332,2.196999756667018,2.5199147829711435,0.2791258692741394,-0.3723080158233642,-0.0353138297796249,jumping
1783090641943507500,3.183507568359375,0.3286254398401826,0.9248200124680996,4.918218033227324,0.2684921324253082,-0.4543226361274719,-0.0026532937772572,jumping
1783090641953552400,3.193552490234375,-0.2857639109741896,-0.8305214340925217,6.629315264391899,0.2117497473955154,-0.5029823184013367,-0.0674642473459243,jumping
1783090641963596500,3.203596435546875,-0.2567700908757746,-2.122934695763886,8.111683819425105,0.133865013718605,-0.5701681971549988,-0.1811900734901428,jumping
1783090641973641700,3.213641845703125,0.7799406360860913,-2.718382176351547,9.57087666605413,0.0250368118286132,-0.7224874496459961,-0.3039181232452392,jumping
1783090641983685400,3.223685302734375,1.9275182143867016,-3.0928464803680775,11.049242999708651,-0.1314642876386642,-1.0085796117782593,-0.4323927760124206,jumping
1783090641993730600,3.23373046875,2.3873072244673965,-3.519995203606784,12.425461210530996,-0.3072875142097473,-1.402851104736328,-0.5796365737915039,jumping
1783090642003774700,3.243774658203125,2.237181106538326,-3.7210979139268394,13.683856175005436,-0.4503486454486847,-1.8337644338607788,-0.7113319635391235,jumping
1783090642013819400,3.2538193359375,1.985182613978535,-3.4393946034550664,13.999623083120584,-0.5066635608673096,-2.1041336059570312,-0.7425034642219543,jumping
1783090642023863600,3.263863525390625,1.898411362367868,-2.570757665979862,13.564690866398813,-0.4632164239883423,-2.1162030696868896,-0.6824024319648743,jumping
1783090642033908500,3.273908447265625,2.0732818993225695,-1.9752941110402344,12.67885261875391,-0.3461574614048004,-1.9059289693832395,-0.6015395522117615,jumping
1783090642043952400,3.283952392578125,2.159977455348521,-1.6221721625208854,11.181796197676658,-0.1837036907672882,-1.4558935165405271,-0.504489004611969,jumping
1783090642053997600,3.29399755859375,2.099186302038282,-1.6609104739770293,10.049563268828392,0.0293510612100362,-0.8585294485092163,-0.3809074461460113,jumping
1783090642064041700,3.304041748046875,2.1517697451040148,-2.18508807733804,9.389723980090022,0.2573472559452057,-0.2515713572502136,-0.2765251994132995,jumping
1783090642074086400,3.31408642578125,2.17768393856138,-2.736906844079494,8.294002042037247,0.4115709066390991,0.4090622365474701,-0.1994639635086059,jumping
1783090642084130600,3.324130615234375,2.435891514894366,-2.932825429759919,7.188074351790547,0.5589179396629333,1.0559029579162598,-0.1508404165506363,jumping
1783090642094175500,3.334175537109375,2.484037413904071,-3.0581057141155004,6.537194030055403,0.687686026096344,1.584220051765442,-0.2157933115959167,jumping
1783090642104219400,3.344219482421875,2.420355361457914,-2.795498441518843,6.343672860905528,0.6664882302284241,1.9914920330047607,-0.3741751909255981,jumping
1783090642114264600,3.3542646484375,1.451334242083132,-2.5787653236076236,6.88224490032196,0.559638500213623,2.2138137817382812,-0.5310268402099609,jumping
1783090642124308500,3.36430859375,0.6319786373883486,-2.4294787252426144,7.471250072902441,0.4009519815444946,2.227698564529419,-0.6444326639175415,jumping
1783090642134353700,3.374353759765625,0.9338514601856468,-2.3554268160820007,7.875132486844063,0.1929153949022293,1.9420214891433716,-0.6561199426651001,jumping
1783090642144397600,3.3843974609375,1.502013605093211,-2.8263579824239016,8.83883898706734,0.0605867020785808,1.359404683113098,-0.6774178743362427,jumping
1783090642154442500,3.3944423828125,1.5780371065877377,-4.167528260740638,8.852384697338938,-0.0836282595992088,0.6322574019432068,-0.7638800740242004,jumping
1783090642164486700,3.404486572265625,1.5902863473080098,-4.792338613934815,8.680114990532397,-0.1083448678255081,-0.0598143637180328,-0.8236579298973083,jumping
1783090642174531600,3.414531494140625,1.8231714124664664,-4.439785697475076,8.76485546696782,-0.0030381479300558,-0.6018722653388977,-0.8336509466171265,jumping
1783090642184575500,3.424575439453125,2.434186902933567,-3.268503491525352,7.881742260372638,0.1269917786121368,-0.8728303909301758,-0.7359121441841125,jumping
1783090642194620700,3.43462060546875,1.994384449826926,-2.7510113572776316,9.232603327098488,0.4294038414955139,-1.1723111867904663,-0.5760210156440735,jumping
1783090642204664600,3.44466455078125,2.239180025270581,-1.7192004581212996,9.143127638834716,0.5496690273284912,-1.2255140542984009,-0.4204241037368774,jumping
1783090642214709500,3.45470947265625,2.8856261639505623,-0.6091735158622265,9.592792729786035,0.4998053610324859,-1.3404667377471924,-0.186901107430458,jumping
1783090642224753700,3.464753662109375,2.6584610838741063,0.4142015633821487,9.387381216356156,0.3803145885467529,-1.4836171865463257,0.1321206092834472,jumping
1783090642234798300,3.47479833984375,1.9780393180951472,1.1041939983218907,8.501674486136436,0.3378779292106628,-1.5389288663864136,0.4697367250919342,jumping
1783090642244842500,3.484842529296875,1.9574980498477816,1.0423343389973043,7.703347933205961,0.3678791224956512,-1.5149571895599363,0.6720754504203796,jumping
1783090642254887700,3.4948876953125,1.6125284281238912,1.6212065323591232,6.748741854283213,0.3455402553081512,-1.419808864593506,0.7890060544013977,jumping
1783090642264931300,3.504931396484375,2.766208341887593,2.7866666080266236,5.448756988313794,0.1884112656116485,-1.129149079322815,0.9153855443000792,jumping
1783090642274976500,3.5149765625,4.4164872394740575,4.442411369803548,4.043770363646745,0.0296639613807201,-0.7127518653869629,1.1221327781677246,jumping
1783090642285020700,3.525020751953125,3.5184520658180114,5.652865602451563,2.0641391001850367,-0.1023382619023323,-0.1757666915655136,1.3614819049835205,jumping
1783090642295065600,3.535065673828125,1.929016928511858,3.924735111160576,-0.0784387459427118,-0.1176325306296348,0.4589349031448364,1.3812692165374756,jumping
1783090642305109500,3.545109619140625,-2.1218273190438746,2.025969236266613,-2.118438261127472,-0.1314575225114822,0.9568186402320862,1.244550108909607,jumping
1783090642315154400,3.555154541015625,-5.44568649482727,0.6705763713300228,-5.695107830375433,-0.269421249628067,1.2833764553070068,1.02115797996521,jumping
1783090642325198600,3.565198486328125,-5.650558494552969,1.6496639805585145,-11.877346851265427,-0.3946448862552643,1.8184480667114256,1.001935958862305,jumping
1783090642335243500,3.575243408203125,-3.0447330223232507,4.766272737047076,-18.38298429806232,-0.4459392428398132,2.61739444732666,1.2774852514266968,jumping
1783090642345287700,3.58528759765625,-2.3671904652424156,4.205529197832941,-25.539991895937916,-0.4459570050239563,3.994274616241455,1.4231951236724854,jumping
1783090642355332600,3.59533251953125,-4.376216311623156,-1.6733306873500349,-26.513344760906698,-0.4361698925495147,5.093099594116211,0.9605910778045654,jumping
1783090642365376500,3.60537646484375,-3.4063609333813187,-2.6805451976493,-18.502951570701597,-0.4016097784042358,4.571298122406006,0.5437217950820923,jumping
1783090642375421400,3.61542138671875,-2.4541291823744773,-1.3367974700599907,-13.17339788491726,-0.1414200216531753,3.31554651260376,0.3153651058673858,jumping
1783090642385465600,3.625465576171875,-2.9954724400699138,-0.52560529807657,-11.249852081292866,0.3769822120666504,2.14365291595459,-0.0220648497343063,jumping
1783090642395510500,3.635510498046875,-2.871286965213716,1.1118278542011977,-8.980497867032884,0.8104665279388428,0.7736587524414062,-0.318105548620224,jumping
1783090642405554400,3.645554443359375,-3.971593600708246,0.790208712926507,-10.868561438387632,0.8816161155700684,-0.2114665061235427,-0.6395255923271179,jumping
1783090642415599600,3.655599609375,-3.973565193042159,-1.4217197328031062,-13.09280868294239,0.5509498119354248,-0.8413177132606506,-1.052718162536621,jumping
1783090642425643500,3.6656435546875,-3.3337460712864995,-0.9768559046536684,-14.441684128808976,0.0244482681155204,-1.2937519550323486,-1.370387077331543,jumping
1783090642435688400,3.6756884765625,-2.971661356371641,0.4602358770653605,-15.93603070640564,-0.4070866405963897,-1.5601909160614014,-1.5287505388259888,jumping
1783090642445732600,3.685732666015625,-2.347888383401185,1.933457833568752,-17.54597233290672,-0.6301416158676147,-1.5365335941314695,-1.504032015800476,jumping
1783090642455777500,3.695777587890625,-1.087146563539654,3.736095868833363,-18.091415427136425,-0.6850211024284363,-1.2656598091125488,-1.260593295097351,jumping
1783090642465821400,3.705821533203125,-0.2311732928045093,4.342893595474958,-17.267988919740915,-0.5238049626350403,-0.8523151874542236,-0.8666695356369019,jumping
1783090642475866600,3.71586669921875,-0.877446266874671,3.5717262676268815,-15.241922652840614,-0.2141342163085937,-0.4530615508556366,-0.4888261556625366,jumping
1783090642485910500,3.72591064453125,-1.5280305282726885,2.8106001490607855,-11.877000814306736,0.0614678896963596,-0.1942834854125976,-0.2085001915693283,jumping
1783090642495955500,3.73595556640625,-1.6640245143443344,2.2566879171714187,-8.689198460698128,0.1749124228954315,-0.0514821261167526,-0.0096057429909706,jumping
1783090642505999600,3.74599951171875,-1.437777718156576,2.12716078902632,-6.6308461272209875,0.1371289193630218,0.0200409088283777,0.1178431436419487,jumping
1783090642516044500,3.75604443359375,-0.8001669931653886,2.459294017791748,-5.517513713675737,0.0399030335247516,0.0013175541535019,0.2069043070077896,jumping
1783090642526088400,3.76608837890625,0.4630349331993609,2.7557959612056613,-4.947397950482368,-0.0653309375047683,-0.1305974870920181,0.19514961540699,jumping
1783090642536133600,3.776133544921875,1.4126073288038372,3.381518460808694,-3.662342942619324,-0.0460366010665893,-0.3288722336292267,0.2210025191307068,jumping
1783090642546177500,3.786177490234375,1.838991205149889,3.6191190101817248,-1.208426526212692,0.1696943640708923,-0.6177956461906433,0.3108173608779907,jumping
1783090642556222500,3.796222412109375,1.7266776621341704,2.7973738800019023,1.5242092164188623,0.4658913910388946,-0.9262216687202454,0.3614227473735809,jumping
1783090642566266600,3.8062666015625,1.7869361698724329,1.5279703225180503,4.050563677048683,0.6930627226829529,-1.0919816493988037,0.3544601798057556,jumping
1783090642576311600,3.8163115234375,2.06171713373512,0.0943874257028102,6.49137569721043,0.7613595128059387,-1.167972207069397,0.3058199286460876,jumping
1783090642586355500,3.82635546875,2.165888140697032,-1.0644450485184789,8.652212253606319,0.6955946683883667,-1.1682543754577637,0.2453086525201797,jumping
1783090642596400400,3.836400390625,2.062389187777787,-1.584846640472114,10.799151802074908,0.5901127457618713,-1.1497411727905271,0.1931003034114837,jumping
1783090642606444500,3.846444580078125,1.951842508304119,-1.6777473347485063,12.87684187322855,0.4558353722095489,-1.211877942085266,0.1365183591842651,jumping
1783090642616489700,3.85648974609375,1.8857466727145016,-1.781630903071165,13.966535637032983,0.298922449350357,-1.2320756912231443,0.0910376906394958,jumping
1783090642626533600,3.86653369140625,1.875172233338654,-1.8083721950024363,14.143874902188776,0.0952795073390007,-1.203525424003601,0.0771998092532157,jumping
1783090642636578600,3.87657861328125,1.963330993784964,-2.0614216579198836,13.71322255474329,-0.1382637321949005,-1.189531326293945,0.032899722456932,jumping
1783090642646622700,3.886622802734375,1.7496452807456253,-2.229150506426394,12.557577186125515,-0.3272694051265716,-1.113781213760376,-0.0571441128849983,jumping
1783090642656667400,3.89666748046875,1.2348419471904637,-2.3570146697953342,11.218817476081847,-0.3647390007972717,-0.955008625984192,-0.1484298110008239,jumping
1783090642666711600,3.906711669921875,0.9217619400717316,-2.692535202911496,10.065309119492769,-0.1757646352052688,-0.7110495567321777,-0.2428577989339828,jumping
1783090642676756700,3.9167568359375,0.9928887555658816,-2.860038718229532,9.02875365615785,0.1638350188732147,-0.334408551454544,-0.3370586037635803,jumping
1783090642686800400,3.92680029296875,1.230896716696024,-2.307134786599874,8.259497130367158,0.4007081091403961,0.1783724725246429,-0.4015267491340637,jumping
1783090642696845600,3.936845458984375,1.4348209141775965,-1.881393299810588,7.993651898762583,0.3505600094795227,0.814320981502533,-0.4139240384101867,jumping
1783090642706889700,3.9468896484375,1.6108939587898552,-1.9516721201732752,7.904546797376871,0.1300819814205169,1.544305682182312,-0.3644993901252746,jumping
1783090642716934400,3.956934326171875,1.6960908006906508,-2.129355668722093,7.615622888001799,-0.1183648556470871,2.2229509353637695,-0.2966159284114837,jumping
1783090642726978600,3.966978515625,1.7534107707589863,-2.111656345902383,7.375905784866213,-0.3000292778015136,2.6888818740844727,-0.2223922461271286,jumping
1783090642737023500,3.9770234375,1.8415297837167977,-2.4400106406509874,7.252870941349864,-0.3757365643978119,2.8810689449310303,-0.1687138378620147,jumping
1783090642747067400,3.9870673828125,1.7180843135729431,-2.8510879345327615,7.312887895417213,-0.3610836267471313,2.785198926925659,-0.1845133751630783,jumping
1783090642766527700,4.00652783203125,1.0248173139419403,-2.8774054480940103,7.737283520555496,-0.1748006641864776,2.054710865020752,-0.2270963788032531,jumping
1783090642776571400,4.0165712890625,0.5880346105152741,-3.283540609398484,8.63911487162411,-0.0550825148820877,1.5600260496139526,-0.2930341064929962,jumping
1783090642786616600,4.026616455078125,0.1820547859029844,-3.632072599779069,9.42290670324564,0.0098138805478811,1.107208013534546,-0.3840120136737823,jumping
1783090642796660500,4.036660400390625,0.0283036458771675,-3.4908255154848096,9.8630820813179,0.0489522293210029,0.757808268070221,-0.4266926348209381,jumping
1783090642806705400,4.046705322265625,-0.0724658638118766,-2.7952631714582443,10.058141712081431,0.084987498819828,0.544684648513794,-0.3726952373981476,jumping
1783090642816749600,4.05674951171875,-0.0443141205607913,-1.7688672830879688,10.245851564604044,0.1420699656009674,0.3922697901725769,-0.1980413943529129,jumping
1783090642826794200,4.066794189453125,0.336910014713183,-0.8844806955561041,10.89846090208888,0.1559516936540603,0.1570157408714294,0.0622655972838401,jumping
1783090642836838000,4.076837890625,0.5066815480284392,-0.1485296425178646,11.5230845005393,0.0572408400475978,-0.0876067876815795,0.3339903354644775,jumping
1783090642846883000,4.086883056640625,0.2551520064209587,0.3567132510095834,11.05920559079647,-0.1364279240369796,-0.2705394029617309,0.5895755290985107,jumping
1783090642856927200,4.09692724609375,0.2015272741413675,0.6609247458875179,9.663916768801212,-0.2799515426158905,-0.434689462184906,0.802187442779541,jumping
1783090642866972200,4.10697216796875,0.9073197924170644,0.6496265222817659,8.457090663522482,-0.3579335808753967,-0.486084520816803,0.965255618095398,jumping
1783090642877016000,4.11701611328125,1.5116351276583968,0.5357987753108143,6.528383531612158,-0.4281518161296844,-0.3743792772293091,1.1242148876190186,jumping
1783090642887061000,4.12706103515625,2.410389263238758,1.3180842940226196,4.345785225263238,-0.5330393314361572,0.1059998497366905,1.389913558959961,jumping
1783090642897105200,4.137105224609375,2.8171187371745705,3.712035778810084,1.215594518145919,-0.6668384075164795,0.9857162237167358,1.6854631900787354,jumping
1783090642907150000,4.147150146484375,2.4909388638556003,4.284579353672266,-2.464032152229547,-0.7530403733253479,2.1798293590545654,1.8326573371887207,jumping
1783090642917194200,4.1571943359375,0.5820893653100356,3.498456741015613,-7.264135847207903,-0.741601824760437,3.512361764907837,1.8110699653625488,jumping
1783090642927239200,4.1672392578125,-2.4984359416127204,2.8732831074669956,-12.751405813789368,-0.5865224599838257,4.394229412078857,1.6761627197265625,jumping
1783090642937283000,4.177282958984375,-0.1811884879298508,1.683817010051012,-14.513566292715073,-0.3496167063713074,4.724535942077637,1.964072346687317,jumping
1783090642947328000,4.187327880859375,2.249623531743139,4.178192862617969,-15.21091259754896,-0.302190363407135,5.285951614379883,1.879727482795715,jumping
1783090642957372200,4.1973720703125,1.279480860992521,0.2477145316302776,-19.685684852731228,-0.6053974032402039,5.165733337402344,1.3305968046188354,jumping
1783090642967417300,4.207417236328125,4.591761681054532,-4.516819545055926,-17.69602027103305,-1.0117322206497192,3.912024974822998,1.0993468761444092,jumping
1783090642977461000,4.2174609375,7.478933028620481,-1.733743070475757,-13.15998544563651,-0.9082699418067932,2.48246693611145,0.9724537134170532,jumping
1783090642987506200,4.227506103515625,6.024653088474273,-0.1200692717090249,-11.333764874732491,-0.3023788034915924,1.2949542999267578,0.7519410848617554,jumping
1783090642997550000,4.237550048828125,2.411260931506753,1.0268462624862789,-8.061909442430734,0.2337096482515335,0.1781764328479766,0.4835479855537414,jumping
1783090643007595000,4.247594970703125,-1.0393635064929725,1.9610794154658913,-5.401843845969438,0.482044905424118,-0.8349850177764893,0.0856446474790573,jumping
1783090643017639200,4.25763916015625,-2.7892800053954123,1.3888187491983175,-3.950160936579108,0.3592297732830047,-1.821176528930664,-0.3821286857128143,jumping
1783090643027684000,4.26768408203125,-2.0818205950871107,0.9213941296726464,-2.5220389355182644,0.015269954688847,-2.7439494132995605,-0.6188921332359314,jumping
1783090643037728000,4.27772802734375,-0.7784729746863246,1.7192627097025512,-2.637557996577024,-0.2651955187320709,-3.453016757965088,-0.7373232245445251,jumping
1783090643047773200,4.287773193359375,0.0884799552246928,2.0765452850326893,-4.66286906119585,-0.3354005515575409,-3.8448946475982666,-0.9563915729522704,jumping
1783090643057817300,4.2978173828125,0.7190666998632251,1.872707012268901,-6.7272939925849435,-0.1934178322553634,-3.957472085952759,-1.176095962524414,jumping
1783090643067862000,4.307862060546875,0.6169406427323818,1.492083016578853,-7.650677250248194,0.0501742623746395,-3.82453989982605,-1.3637723922729492,jumping
1783090643077906200,4.31790625,0.5435197980169206,0.8639604700967669,-7.708258501601219,0.2650423645973205,-3.5290000438690186,-1.5406134128570557,jumping
1783090643087951000,4.327951171875,0.9058089494626969,0.220199332717061,-7.141606615126133,0.1833493411540985,-3.068457841873169,-1.6701630353927612,jumping
1783090643097995000,4.3379951171875,0.7933073365289718,-0.1053127243429422,-9.32515886119902,0.0522278025746345,-2.1431963443756104,-1.6881548166275024,jumping
1783090643108040200,4.348040283203125,1.0266728056155143,0.6364683500230311,-12.274870836091042,0.1223189979791641,-1.1373209953308103,-1.5164738893508911,jumping
1783090643118084000,4.358083984375,0.9925379693668336,2.8115397679984566,-12.586238632464408,0.1827873885631561,-0.4587835967540741,-1.2673990726470947,jumping
1783090643128757200,4.36875732421875,1.0116360530685633,2.930700108169019,-13.765212269699571,0.2795440852642059,0.0390852466225624,-1.0711898803710938,jumping
1783090643138802200,4.37880224609375,0.7023413366422057,2.105091872820258,-13.705731322205066,0.3101872205734253,0.3774198889732361,-0.9809377193450928,jumping
1783090643148846000,4.38884619140625,0.2308877903940156,1.9868980395942928,-12.846949423789978,0.183444932103157,0.5554377436637878,-0.8981155157089233,jumping
1783090643158891300,4.398891357421875,0.312511413450539,2.3771061484485863,-11.02011510490179,-0.0052328389137983,0.4828284680843353,-0.7922937273979187,jumping
1783090643168935200,4.40893505859375,0.7611872741688043,2.9364459583446383,-8.498142804878949,-0.1472102552652359,0.1622450500726699,-0.6791216135025024,jumping
1783090643178980000,4.41897998046875,1.4550304662525653,3.3143808610811827,-6.039826692208647,-0.2252206355333328,-0.2838365733623504,-0.6206974387168884,jumping
1783090643189024300,4.429024169921875,2.316934003819525,3.065741323560476,-3.837001005867123,-0.2288150638341903,-0.8071833848953247,-0.6013452410697937,jumping
1783090643199069000,4.43906884765625,3.2511502056643367,2.9278347818657755,-2.2213965312987565,-0.0045116594992578,-1.286632776260376,-0.5562986731529236,jumping
1783090643209113000,4.449113037109375,3.471635661846399,3.3557577043473716,-1.3340642457038163,0.3224120140075683,-1.5634207725524902,-0.503829836845398,jumping
1783090643219158300,4.459158203125,3.62310077329427,3.2635075829342006,-0.2289659920185804,0.5674201846122742,-1.6774808168411257,-0.4403456747531891,jumping
1783090643229202000,4.469201904296875,2.9991172263130546,2.9887065991967914,2.2515479239344596,0.6168659329414368,-1.7464150190353394,-0.3546574115753174,jumping
1783090643239247000,4.4792470703125,2.0371945407666265,1.432121299830079,5.368189413648843,0.4725473523139953,-1.5022443532943726,-0.3873303830623626,jumping
1783090643249291300,4.489291259765625,2.408387129636109,0.030205460910499,6.8590960799247025,0.5703604817390442,-1.3374886512756348,-0.4520347416400909,jumping
1783090643259336200,4.499336181640625,1.693505460372567,-0.4307432405993342,12.217352713102102,0.8306293487548828,-1.2409842014312744,-0.4474751353263855,jumping
1783090643269380000,4.509380126953125,0.7705689966287463,-0.8395932138204574,15.169196439325807,0.9886906743049622,-1.3395649194717407,-0.4475441873073578,jumping
1783090643279425000,4.519425048828125,0.6589617752514779,-1.6261720458120106,17.41684443321228,0.8883278369903564,-1.4140868186950684,-0.3987020552158355,jumping
1783090643289469200,4.52946923828125,0.5102369024224579,-1.8494465481907127,17.18539480768442,0.420089989900589,-1.2537251710891724,-0.3321903645992279,jumping
1783090643299514000,4.53951416015625,0.9963346582360564,-1.952094144977629,16.25328697629571,-0.0512456037104129,-1.1472924947738647,-0.2275613993406295,jumping
1783090643309558300,4.549558349609375,0.7792479045815766,-2.40029997703135,14.57612299439311,-0.3561421036720276,-0.8349725604057312,-0.1851596087217331,jumping
1783090643319603200,4.559603271484375,0.2066091987818479,-3.1571254757940768,11.730676280617711,-0.3309361040592193,-0.3296484351158142,-0.2419049143791198,jumping
1783090643329647000,4.569647216796875,-0.1965310184903442,-3.0882834102362393,10.084960745424032,-0.129618227481842,0.2555798888206482,-0.2712738811969757,jumping
1783090643339692000,4.579692138671875,0.1191480652108788,-2.4586639031946658,9.028882835495471,-0.0011326862731948,0.7002961039543152,-0.2672208249568939,jumping
1783090643349736200,4.589736083984375,1.262101417776942,-1.955542531865835,8.310188622206448,0.0011949667241424,1.085544466972351,-0.1924026161432266,jumping
1783090643359781000,4.599781005859375,1.7965115152083335,-1.374748430530727,6.8322191789150235,-0.0620532445609569,1.4050071239471436,-0.0975101962685585,jumping
1783090643369825000,4.609824951171875,1.88084487214759,-1.4857956068724394,5.809146297487616,-0.0769512355327606,1.5489035844802856,-0.015249147079885,jumping
1783090643379870200,4.6198701171875,1.4281369063690303,-2.1806962721198797,5.2028755173295735,-0.0040964679792523,1.4933454990386963,-0.0230042710900306,jumping
1783090643389914000,4.6299140625,1.570622884808481,-2.701156900784373,5.306591327869892,0.0946386530995369,1.2210280895233154,-0.019351877272129,jumping
1783090643399959000,4.639958984375,1.7539213506296276,-2.522996966895461,6.099797469046711,0.1027623564004898,0.8140160441398621,0.0320372767746448,jumping
1783090643410003200,4.650003173828125,1.7197165909498928,-2.521681500382721,7.079591765239835,0.0402858592569828,0.4192345738410949,0.0665454268455505,jumping
1783090643420048100,4.660048095703125,1.581400007149577,-2.719065774701535,8.108536753571032,0.0336045213043689,0.0948964655399322,0.1307798027992248,jumping
1783090643430092000,4.670092041015625,0.9700793962560592,-2.7485084345459936,9.627976855891944,0.0769771188497543,-0.2238249480724334,0.199585884809494,jumping
1783090643440137200,4.68013720703125,0.5564123050767928,-2.725500776185095,11.299797138679027,0.1933447420597076,-0.5943963527679443,0.256218284368515,jumping
1783090643450181000,4.69018115234375,0.6507145367141812,-2.546579794795811,12.548717003321649,0.2834277749061584,-1.037375569343567,0.3276035189628601,jumping
1783090643460226000,4.70022607421875,1.0656091238617895,-2.2731562368914484,12.68899524258375,0.2932782769203186,-1.385392665863037,0.3989812731742859,jumping
1783090643470270200,4.710270263671875,1.2990069608479735,-1.5417325981497765,12.244597278380391,0.1974723786115646,-1.6133695840835571,0.4891545176506042,jumping
1783090643480315100,4.720315185546875,1.4345809679418802,-0.8893515164628625,11.429497869825363,0.0394824855029583,-1.7980265617370603,0.6229541301727295,jumping
1783090643490359000,4.730359130859375,1.6491779506072402,-0.3836114870682358,9.546676290777324,0.022421471774578,-1.9587604999542236,0.7858356237411499,jumping
1783090643500404200,4.740404296875,1.9681464312426744,0.1698266975685954,7.663809119021892,0.1675839871168136,-2.047802209854126,0.8907735347747803,jumping
1783090643510448000,4.7504482421875,2.790002474451065,0.5490361502856016,5.629275468027592,0.3179884254932403,-1.9048960208892824,1.0194655656814575,jumping
1783090643520493000,4.7604931640625,2.919194671553373,1.7141814609155055,4.176388443544507,0.3659498393535614,-1.7075965404510498,1.2001017332077026,jumping
1783090643530537200,4.770537109375,2.694566124217212,2.958253885526955,3.696635672843456,0.2043414264917373,-1.435097575187683,1.4011917114257812,jumping
1783090643540582100,4.78058203125,2.2354029909498987,3.052494011713564,2.777750895643234,-0.0398280993103981,-1.164557695388794,1.569846510887146,jumping
1783090643550626000,4.7906259765625,-0.0384017729781568,2.362603868104517,1.9549907432019709,-0.1459502279758453,-0.970903754234314,1.6421092748641968,jumping
1783090643560671000,4.8006708984375,-2.3687770037814975,0.7237564651146531,-0.4437269330739974,-0.0489437989890575,-0.5098304152488708,1.6609536409378052,jumping
1783090643570715100,4.810715087890625,2.5396356747463344,2.7534292320743203,-4.708929970625043,0.2828682065010071,-0.3044351041316986,2.161158800125122,jumping
1783090643580760300,4.82076025390625,0.4766797929964959,6.2912733961045735,-10.689774897032976,0.3708862066268921,1.1622384786605835,2.2677102088928223,jumping
1783090643590804200,4.83080419921875,-6.528115236064791,0.2812999903678894,-21.5139594335556,-0.0255865845829248,3.4176204204559326,1.6210033893585205,jumping
1783090643600849200,4.84084912109375,-9.90717256745696,-7.263009473526477,-25.349825882434843,-0.5657941699028015,4.112847805023193,0.7838516235351562,jumping
1783090643610893000,4.85089306640625,-5.658224499136209,-6.14800941902995,-17.62279721391201,-0.4561616480350494,3.0494773387908936,0.4333328306674957,jumping
1783090643620938000,4.86093798828125,-1.4276879935577511,0.2225961647257208,-10.152405219143628,0.2785778641700744,1.3772270679473877,0.3370467722415924,jumping
1783090643630982100,4.870982177734375,-2.6234794946029782,2.40297621050328,-6.325901641893386,1.0024871826171875,0.2227120697498321,0.1639667749404907,jumping
1783090643641027300,4.88102734375,-4.689678742188215,1.8741919901296495,-3.345791021606326,1.0499180555343628,-0.6557020545005798,0.0061451755464077,jumping
1783090643651071000,4.891071044921875,-5.1274610876441,2.81172096978426,-2.2349428260922433,0.6619296669960022,-0.8686702847480774,-0.1009034141898155,jumping
1783090643661116200,4.9011162109375,-4.051145568589866,2.749326765191555,-4.910279056921601,0.302149623632431,-1.0332123041152954,-0.2126517742872238,jumping
1783090643671160300,4.911160400390625,-2.9537656341969964,2.3166744761005043,-8.737939402991532,0.0610835961997509,-1.165440797805786,-0.3866345286369324,jumping
1783090643681205000,4.921205078125,-3.2067034534335135,-0.2613315535724163,-13.241846567243336,0.0459688231348991,-1.3334321975708008,-0.7888794541358948,jumping
1783090643691249200,4.931249267578125,-3.098533586093783,-3.1337580442100763,-16.25048828548789,0.2111270278692245,-1.354209542274475,-1.092719554901123,jumping
1783090643701294000,4.941294189453125,-1.9171432431057096,-1.502525207877159,-18.144502874201535,0.3096453547477722,-0.9241830706596376,-0.986214816570282,jumping
1783090643711338000,4.951337890625,-2.105359145454317,1.1195642936721444,-19.52711575449705,0.3126091361045837,-0.1341330409049987,-0.6768774390220642,jumping
1783090643721383200,4.961383056640625,-2.6556805132448673,2.134754605156183,-18.09579934130907,0.3337264060974121,0.4689024984836578,-0.4682281017303467,jumping
1783090643731427000,4.971427001953125,-2.571447694070637,1.8211945594355463,-13.746036444586515,0.2756089866161346,0.689922571182251,-0.4121284484863281,jumping
1783090643741471000,4.981470947265625,-3.692003921389579,1.4713395037576555,-10.312780490016936,0.0611994825303554,0.6671424508094788,-0.3680595159530639,jumping
1783090643751516200,4.99151611328125,-4.030064494377374,1.5706851363897325,-9.122325089302658,-0.1581596285104751,0.5894239544868469,-0.3223163783550262,jumping
1783090643761560300,5.001560302734375,-3.2766490963190793,2.2857725573584435,-10.879899994003772,-0.1826295554637909,0.5853458642959595,-0.3044316470623016,jumping
1783090643771605000,5.01160498046875,-2.913579754281044,2.420624387657642,-13.896145172989367,-0.0178240779787302,0.7142700552940369,-0.3838452100753784,jumping
1783090643781649200,5.021649169921875,-2.421088059646636,1.7620470816791056,-15.699314538651704,0.2595332264900207,0.8958433270454407,-0.5180554986000061,jumping
1783090643791694000,5.031694091796875,-1.859979632642865,1.5488047284930944,-13.856065676057336,0.4057411253452301,0.7189334630966187,-0.6362306475639343,jumping
1783090643801738000,5.041738037109375,-0.4541299614056944,1.3293088678702711,-9.869626388394831,0.4529440701007843,0.4908951818943023,-0.6156108379364014,jumping
1783090643811783200,5.051783203125,0.9041608899947255,1.900341599778086,-6.448887385571003,0.4217394590377807,0.3681009113788605,-0.4932515025138855,jumping
1783090643821827800,5.061827880859375,1.4921563740760089,2.8945889303460715,-3.5701071419924495,0.3270169496536255,0.4682727754116058,-0.3070446252822876,jumping
1783090643831872800,5.071872802734375,2.059311972289532,3.513428684698045,-0.9843331086665392,0.1299725174903869,0.6735377907752991,-0.0659017488360405,jumping
1783090643841916700,5.081916748046875,2.9024484116747975,3.7315479962706566,1.77380707757771,-0.1375396102666854,0.8013817667961121,0.2035140097141266,jumping
1783090643851961900,5.0919619140625,3.2444945471674203,3.0237188758671283,3.938060164418817,-0.3282114863395691,0.7852933406829834,0.3775720000267029,jumping
1783090643862005800,5.102005859375,2.84963598215878,1.474636207215488,5.236985292202234,-0.3609172403812408,0.6632031202316284,0.3908563554286957,jumping
1783090643872050700,5.11205078125,2.3714102748945356,-0.1068999935343861,5.769972224962711,-0.1665686070919037,0.4580843150615692,0.3314506411552429,jumping
1783090643882094800,5.1220947265625,2.146853623750806,-0.8179948377355932,6.377834073704481,0.1024053394794464,0.1108682975172996,0.2741916179656982,jumping
1783090643892139800,5.132139892578125,1.9111020632453264,-1.109943355628848,8.274390163594484,0.2817984521389007,-0.3227019011974334,0.250399112701416,jumping
1783090643902183700,5.14218359375,1.362802556671202,-1.4620895909838378,10.34854387731552,0.3312911689281463,-0.6978060007095337,0.2064385712146759,jumping
1783090643912228900,5.152228759765625,1.0897405986208468,-1.4629361248105763,12.046247958421706,0.2504190504550934,-1.051945686340332,0.1921314299106598,jumping
1783090643922272800,5.162272705078125,1.2031116878654806,-0.5904520103879273,13.704974950879812,0.1032346710562706,-1.3728996515274048,0.2700768113136291,jumping
1783090643932317700,5.172317626953125,1.1481886228710412,-0.024138708217442,14.60068343515396,-0.0880436971783638,-1.6179068088531494,0.357093870639801,jumping
1783090643942361900,5.18236181640625,0.8898703527051955,-0.0963325684212148,14.482261638391018,-0.2851977944374084,-1.6435292959213257,0.4024296700954437,jumping
1783090643952406800,5.19240673828125,0.909485080692172,-0.293744899790734,14.000436737591029,-0.4303952157497406,-1.5909281969070437,0.4065434336662292,jumping
1783090643962450700,5.20245068359375,1.0443621915630996,-0.6072083532691002,13.20394499887228,-0.5835424065589905,-1.471558928489685,0.3732640445232391,jumping
1783090643972496000,5.212495849609375,1.4409445116244255,-0.8666898950606584,11.584926916468143,-0.7027989625930786,-1.1958526372909546,0.3152705430984497,jumping
1783090643982539800,5.222539794921875,1.3485169878177343,-1.3638891828641295,9.883308876788616,-0.6387012004852295,-0.6994213461875916,0.2623953223228454,jumping
1783090643992584700,5.232584716796875,1.019035588735342,-1.566968746215105,7.867664050659537,-0.2770051956176758,-0.0542724095284938,0.2352624237537384,jumping
1783090644002628900,5.24262890625,0.9316010509103536,-1.6948144971445205,6.692534813892841,0.1465799212455749,0.5246686935424805,0.2220576703548431,jumping
1783090644012673800,5.252673828125,1.281596684102714,-1.9623966355443,6.64876347670555,0.2879702448844909,1.0070414543151855,0.1906248927116394,jumping
1783090644022717700,5.2627177734375,1.2181347041480242,-2.4884020388543604,6.957773311775922,0.0930199325084686,1.3452781438827517,0.0938229858875274,jumping
1783090644032763000,5.272762939453125,0.8702465646289288,-3.226100520081818,7.519602892661094,-0.2182472050189972,1.462963342666626,-0.0497382059693336,jumping
1783090644042806800,5.282806884765625,0.7237609951592981,-3.6359555786922577,8.177563528046011,-0.4164660274982452,1.2972824573516846,-0.1990571171045303,jumping
1783090644052851700,5.292851806640625,0.8361279488626867,-3.7329333131492137,8.68872558248937,-0.4382318556308746,0.8564977645874023,-0.3407654464244842,jumping
1783090644062895900,5.302895751953125,0.9168230223648248,-3.806337572056055,8.924902821061014,-0.3419585824012756,0.3220135271549225,-0.5176637768745422,jumping
1783090644072940800,5.31294091796875,0.7685655478518456,-4.264100337006151,9.128955321097374,-0.231875792145729,-0.1320640444755554,-0.7079335451126099,jumping
1783090644082984700,5.322984619140625,0.618470482648164,-4.321784756472707,9.453819143381716,-0.2209102213382721,-0.424166202545166,-0.8619470596313477,jumping
1783090644093029600,5.333029541015625,0.7066947095461189,-3.650509881484509,8.98537336411476,-0.2779007852077484,-0.5664470791816711,-0.9244980812072754,jumping
1783090644103073800,5.34307373046875,0.9988139078311622,-3.3874703549504277,9.135670893087983,-0.2850540280342102,-0.6212485432624817,-0.9295969605445862,jumping
1783090644113119000,5.353118896484375,1.5579875673800705,-3.3140511907353996,8.964742664018273,-0.2349271029233932,-0.6712499856948853,-0.9282888770103456,jumping
1783090644123162600,5.36316259765625,2.2443825623497364,-3.2417379419356585,8.701958573549986,-0.0921542420983314,-0.7041423916816711,-0.8993845582008362,jumping
1783090644133207800,5.373207763671875,2.4140315652638673,-2.4623218411803243,8.486383393502235,0.0535792224109172,-0.722783088684082,-0.7879613041877747,jumping
1783090644143252000,5.383251953125,1.9686345070205629,-1.4079220935970544,8.57275994670689,0.0702202469110488,-0.7925243377685547,-0.6990354061126709,jumping
1783090644153296600,5.393296630859375,1.6587405825920405,-0.8568450851336121,8.86302825642824,-0.1013765633106231,-0.940591275691986,-0.5591050386428833,jumping
1783090644163340800,5.4033408203125,1.3809376405596732,0.1967927381664514,8.542171916219592,-0.4262087047100067,-1.1904935836791992,-0.3879604041576385,jumping
1783090644173386000,5.413385986328125,1.836449119451642,0.8895558068633079,8.05475664806664,-0.8415364027023315,-1.6045225858688354,-0.2529450356960296,jumping
1783090644183429600,5.4234296875,2.7664041567206383,1.2553379149913788,6.8134221239864825,-1.1672428846359253,-2.13498854637146,-0.0559185296297073,jumping
1783090644193474800,5.433474853515625,3.37663945659548,2.32716255236715,4.870912092173099,-1.125688076019287,-2.606825828552246,0.1008648499846458,jumping
1783090644203519000,5.44351904296875,5.206804088950157,3.636495676918328,1.727788253724575,-0.6835562586784363,-2.885793447494507,0.5448926091194153,jumping
1783090644213563600,5.453563720703125,4.379942638669908,6.51983665254116,-1.3810820174664258,-0.0500447787344455,-2.697000503540039,1.222974419593811,jumping
1783090644223607800,5.46360791015625,1.8260960677415132,6.491330689024925,-3.3929315429657696,0.3667774796485901,-2.0873780250549316,1.6534072160720823,jumping
1783090644233652700,5.47365283203125,-0.0330009368479251,4.082088403864205,-4.3143636665612455,0.2604360580444336,-1.1799834966659546,1.7822061777114868,jumping
1783090644243696600,5.483696533203125,-0.1734700225070118,3.0349218224048613,-5.779121746101975,-0.3406814932823181,-0.1971607208251953,2.0217556953430176,jumping
1783090644253741800,5.493741943359375,-2.015354903271794,3.2496830557212233,-9.673883451542258,-1.186551570892334,1.311148762702942,2.117712020874023,jumping
1783090644263785700,5.50378564453125,-6.891732859635352,-0.7936778503417968,-16.859909638631343,-1.721057415008545,3.0186221599578857,1.6379255056381226,jumping
1783090644273831000,5.513830810546875,-9.019733898878098,-3.818271463216841,-20.290536413741112,-1.487576603889465,3.682713747024536,1.081173062324524,jumping
1783090644283874800,5.523874755859375,-6.739170308339595,-0.7442968565791845,-18.316832786762713,-0.6208599209785461,3.4263346195220947,0.8567493557929993,jumping
1783090644293919000,5.5339189453125,-4.220165041428804,4.057957002170384,-14.35163151744008,0.2683754563331604,2.703566551208496,0.7687323689460754,jumping
1783090644303964000,5.5439638671875,-3.339648865589499,5.660967075842619,-9.38353856945336,0.8142001628875732,1.8298635482788088,0.6219999194145203,jumping
1783090644314007800,5.5540078125,-4.271847297871113,3.9917295030251143,-5.612908855116367,0.9365636110305786,1.0126914978027344,0.330044537782669,jumping
1783090644324052700,5.564052734375,-4.560898633018136,0.7287456517040729,-4.24339218775928,0.9414901733398438,0.2820775806903839,-0.122616671025753,jumping
1783090644334097000,5.574096923828125,-4.008347168087959,-2.2117732551679015,-4.601645069426298,1.0274509191513062,-0.3635284602642059,-0.5186884999275208,jumping
1783090644344141800,5.584141845703125,-3.4160704264909025,-1.9314239896535872,-4.906193833434582,1.0863746404647827,-0.960776686668396,-0.6470310091972351,jumping
1783090644354185700,5.594185791015625,-2.850693382257223,-0.0639580929085612,-5.52530363689959,0.9290305376052856,-1.3065598011016846,-0.5540938973426819,jumping
1783090644364231000,5.60423095703125,-2.934151125405729,1.278674074654281,-7.388025261726975,0.5601100325584412,-1.3625754117965698,-0.371573656797409,jumping
1783090644374274800,5.61427490234375,-2.6867525278568265,1.8522525455221532,-9.609859015399216,0.1086352244019508,-1.1355299949645996,-0.1565063893795013,jumping
1783090644384319700,5.62431982421875,-2.4131197111159564,2.850771708190441,-12.63254562560916,-0.2693874537944793,-0.5283952951431274,0.1296689063310623,jumping
1783090644394364000,5.634364013671875,-1.8831100406005976,4.543634779006243,-15.39390886555314,-0.3830003142356872,0.0955111384391784,0.509417712688446,jumping
1783090644404408600,5.64440869140625,-1.314321726618707,5.485008451390266,-16.122722321796417,-0.1827540546655655,0.5439003705978394,0.8433317542076111,jumping
1783090644414452700,5.65445263671875,-2.4725778622567653,4.74864004972279,-15.697758541381358,0.1756796836853027,0.873271644115448,0.976356327533722,jumping
1783090644424498000,5.664497802734375,-4.033075074370205,3.191635063639283,-13.918237762331962,0.4415249526500702,1.0497382879257202,0.9208760261535645,jumping
1783090644434541800,5.674541748046875,-4.262486764329672,2.285346440900862,-12.300038010573386,0.4864040315151214,1.188042163848877,0.7364532351493835,jumping
1783090644444586800,5.684586669921875,-3.749995507109165,1.9741744593605397,-11.808653838789462,0.3477204442024231,1.30729079246521,0.4524481296539306,jumping
1783090644454631000,5.694630859375,-3.235932470527291,2.0768562506780026,-12.335062562203406,0.2340348362922668,1.3876190185546875,0.1653960347175598,jumping
1783090644464675800,5.70467578125,-2.7815882818490265,2.1396008761435747,-12.763795339763163,0.2235347777605056,1.302648663520813,-0.0811820551753044,jumping
1783090644474719700,5.7147197265625,-2.2761533728808163,1.712983775563538,-12.26806466320753,0.2894725799560547,1.0545982122421265,-0.2939682006835937,jumping
1783090644484765000,5.724764892578125,-1.8695562931530176,1.442083014135063,-11.036250247144698,0.4379246234893799,0.8514144420623779,-0.4224723577499389,jumping
1783090644494808600,5.73480859375,-1.2639046678066252,1.7371882424935698,-8.911198120835422,0.6058893203735352,0.6571133732795715,-0.4563659429550171,jumping
1783090644504853800,5.744853759765625,-0.4478655672486871,2.119640914915502,-5.9904597269713875,0.6867173314094543,0.4822765588760376,-0.4005825817584991,jumping
1783090644514898000,5.75489794921875,0.2951995555784553,2.4541262597650286,-2.6756191394239663,0.6431379914283752,0.1783160120248794,-0.2667251825332641,jumping
1783090644524942800,5.76494287109375,0.8438411535885184,2.5630504526033997,0.599054857429862,0.5550949573516846,-0.2059661448001861,-0.1658736914396286,jumping
1783090644534986800,5.77498681640625,1.1122922568425535,2.130454277613759,2.7768922329872847,0.5495256185531616,-0.5614026784896851,-0.1826103031635284,jumping
1783090644545031700,5.78503173828125,1.313616062567383,1.0458362096384166,4.261439885625243,0.553451418876648,-0.8054808378219604,-0.2910603582859039,jumping
1783090644555075800,5.795075927734375,1.553643108434975,-0.2577384975165128,5.460701108607649,0.5072436928749084,-0.8872665166854858,-0.4795447885990143,jumping
1783090644565120800,5.805120849609375,1.7867356788642703,-1.7433970340058207,7.042993096160888,0.3806734681129455,-0.8035905361175537,-0.6999828219413757,jumping
1783090644575164700,5.81516455078125,2.3134638434909283,-2.1735084064424037,9.67147054518163,0.2275155484676361,-0.7278991937637329,-0.7881326079368591,jumping
1783090644585209900,5.8252099609375,3.4050638793081043,-1.1123831499964,12.408174560165405,0.0908429250121116,-0.848187267780304,-0.7278429269790649,jumping
1783090644595253800,5.835253662109375,4.181147620770335,0.5793009401679039,14.480891519081592,0.0319265648722648,-1.0901391506195068,-0.5802820324897766,jumping
1783090644605298700,5.845298583984375,4.379553347091377,1.7092995340928434,15.36888080728054,0.0938503891229629,-1.3646003007888794,-0.3713780641555786,jumping
1783090644615342800,5.8553427734375,3.932598391881585,1.5022110273614524,15.22219854619503,0.1662013381719589,-1.5182476043701172,-0.2320461124181747,jumping
1783090644625388000,5.865387939453125,2.9200737924754616,0.5179132822692394,14.380608605599402,0.1415103673934936,-1.4707093238830566,-0.1268171668052673,jumping
1783090644635431700,5.875431640625,1.914393067614734,-0.3902282748594879,13.470833017528056,0.0165435727685689,-1.2646141052246094,-0.0361470393836498,jumping
1783090644645476900,5.885476806640625,1.6174005642049014,-1.2644810063898562,12.83139178917408,-0.1502307504415512,-0.9347597360610962,-0.0067244325764477,jumping
1783090644655520800,5.895520751953125,1.876311028110236,-2.0620067643314597,11.910447156834602,-0.2852266132831573,-0.4808239042758941,0.0327451080083847,jumping
1783090644665565700,5.905565673828125,2.0045171367846426,-2.1046140261754394,10.20337202079296,-0.2929463386535644,0.0261167846620082,0.10463847219944,jumping
1783090644675609900,5.91560986328125,2.343485910658538,-1.8310878846794365,8.340349951714277,-0.1862255632877349,0.5510616302490234,0.1398811936378479,jumping
1783090644685654800,5.92565478515625,2.96115369862169,-1.4179089423432945,7.389928464999795,-0.1052891686558723,0.9615634083747864,0.1756527721881866,jumping
1783090644695698700,5.93569873046875,2.766296312431991,-1.155619357393682,7.053548976966738,-0.0887426435947418,1.2277907133102417,0.1853998005390167,jumping
1783090644705744000,5.945743896484375,2.009354639943689,-1.659514343443513,7.2484765057832,-0.1108205169439315,1.3581501245498655,0.1022343412041664,jumping
1783090644715787800,5.955787841796875,1.420069919769466,-2.37997147475183,7.665130723014474,-0.1444990932941436,1.3475277423858645,0.0005228274967521,jumping
1783090644725832700,5.965832763671875,1.353435739519447,-2.7839211087107656,8.199414125326275,-0.1641471087932586,1.2009851932525637,-0.0966734960675239,jumping
1783090644735876900,5.975876953125,1.2759696380011736,-3.4499814639210697,8.932470041444898,-0.1521938294172287,0.9472664594650269,-0.2016721367835998,jumping
1783090644745921800,5.985921875,1.0472446151316166,-4.266785338306427,9.609135377299785,-0.1148653626441955,0.6543488502502441,-0.297143280506134,jumping
1783090644755965700,5.995965576171875,0.9443125023148954,-4.57240816128701,9.747917825046182,-0.0680071860551834,0.4919629096984863,-0.3710636794567108,jumping
1783090644766011000,6.006010986328125,0.8580766727551817,-4.396629861837625,9.978716877710818,-0.0636949986219406,0.4550549387931824,-0.4078123867511749,jumping
1783090644776054800,6.0160546875,1.067123327817023,-4.1745530448108905,10.567492917710542,-0.1497529000043869,0.4608412683010101,-0.4065856039524078,jumping
1783090644786098700,6.0260986328125,1.597477427855879,-3.684509766241908,11.216983246392012,-0.3561494648456573,0.3650923669338226,-0.3125086426734924,jumping
1783090644796143900,6.036143798828125,1.8206386791184543,-2.8709619710430503,10.890398007142544,-0.567610502243042,0.234216421842575,-0.1932477355003357,jumping
1783090644806187800,6.046187744140625,1.825069793433696,-2.593199214890599,9.458501163718104,-0.6518444418907166,0.1657412052154541,-0.1284378468990326,jumping
1783090644816232700,6.056232666015625,1.5158322870872911,-2.441714521959424,7.391007492408156,-0.4939091503620147,0.2016752660274505,-0.0990086123347282,jumping
1783090644826277400,6.06627734375,0.5501669078812003,-1.923238929632306,5.7509296708405016,-0.2065564543008804,0.3501070737838745,-0.03280695900321,jumping
1783090644836322000,6.076322021484375,-0.7920815210610628,-0.672276745507121,5.567416685485839,0.0537297911942005,0.4290929734706878,-0.074717991054058,jumping
1783090644846366200,6.0863662109375,1.2818012667641043,-0.428882415163517,7.200416531491279,0.1632459014654159,0.2371749281883239,-0.0899304971098899,jumping
1783090644856411100,6.0964111328125,3.415972226813435,1.3053914011880754,7.770990559846163,0.025376072153449,0.0283979177474975,0.2664199769496918,jumping
1783090644866455000,6.106455078125,3.295440598289668,3.2142250811100004,6.2040831884294745,-0.2321976721286773,-0.0761093124747276,0.8817535042762756,jumping
1783090644876500200,6.116500244140625,3.2114085623845456,3.1759958882197736,4.266531071284413,-0.4048728346824646,-0.2969626188278198,1.3118029832839966,jumping
1783090644886544100,6.126544189453125,3.884182151497901,2.9890199029296634,1.9860557435512545,-0.516016960144043,-0.3768308162689209,1.720258355140686,jumping
1783090644896589300,6.13658935546875,2.201401206496358,4.381507988290489,-2.543603701594472,-0.6150451302528381,-0.0829833000898361,2.0414793491363525,jumping
1783090644906633200,6.14663330078125,1.0304243401687592,4.264380322991311,-7.180574935945868,-0.6439028978347778,0.3395237624645233,2.188260078430176,jumping
1783090644916678100,6.15667822265625,-1.0026204605072735,3.9790588220223784,-11.789444111406802,-0.6148921251296997,0.9958135485649108,2.151606559753418,jumping
1783090644926722000,6.16672216796875,-2.911147266437113,2.913888966360688,-14.053870221614837,-0.3483275473117828,1.3134682178497314,1.9252456426620483,jumping
1783090644936767000,6.17676708984375,-3.553429271174967,1.7370131781876086,-13.982774824172257,-0.0475826859474182,1.617300510406494,1.5812917947769165,jumping
1783090644946811100,6.18681103515625,-3.2750115582451222,1.8205860721483824,-13.95404791138172,0.1074353978037834,1.6758575439453125,1.3762168884277344,jumping
1783090644956856300,6.196856201171875,-1.554611076684296,2.993574497494101,-11.105022754597664,0.065670907497406,1.880130648612976,1.0810402631759644,jumping
1783090644966900200,6.206900146484375,-2.68158915374428,1.2936562474697828,-10.02532197701931,0.0103687681257724,1.9301658868789673,0.708080530166626,jumping
1783090644976945200,6.216945068359375,-3.093608696912229,-0.2566226452291011,-8.245928623741865,0.0203894451260566,1.5816107988357544,0.3240076899528503,jumping
1783090644986989300,6.2269892578125,-2.097337605431676,-0.9763225284293292,-7.038536116752028,0.1163817569613456,1.013688564300537,-0.0338031910359859,jumping
1783090644997034000,6.237033935546875,-1.9854358580872415,-1.1968784194990991,-6.567698473912477,0.1807195395231247,0.3094888031482696,-0.250514268875122,jumping
1783090645007078100,6.247078125,-1.9949638571500776,-0.98559012299031,-6.130196698963641,0.2485481351613998,-0.2921997010707855,-0.4183759987354278,jumping
1783090645017123300,6.257123291015625,-2.855828699319064,-1.1376710282489657,-5.978227437385916,0.3782851994037628,-0.6856020092964172,-0.5915769338607788,jumping
1783090645027167000,6.2671669921875,-3.6246851198762657,-1.5851307181105017,-5.377890138930082,0.4840036332607269,-0.9563853144645692,-0.7061386704444885,jumping
1783090645037212200,6.277212158203125,-2.8625276124358177,-0.982947791787982,-4.934895027261972,0.4883842766284942,-0.9759127497673036,-0.7526352405548096,jumping
1783090645047256300,6.28725634765625,-2.1021739395469425,-0.0469394458293914,-5.868330307862162,0.3512621223926544,-0.9215874671936036,-0.7303728461265564,jumping
1783090645057301200,6.29730126953125,-1.8318090385608377,0.9947373060420156,-8.051016292494534,0.1826757192611694,-0.8088365197181702,-0.6839597225189209,jumping
1783090645067345200,6.30734521484375,-1.7795424063593148,1.7456190939694642,-10.42508701876998,0.126700609922409,-0.578352689743042,-0.6186627745628357,jumping
1783090645077390000,6.31739013671875,-1.546978828240186,1.7706264017149804,-12.286368381661177,0.1492523401975631,-0.3182330429553985,-0.562063992023468,jumping
1783090645087434000,6.32743408203125,-1.5733062786735594,0.9458280214443804,-14.0787077257514,0.1858913153409958,-0.0320947617292404,-0.5818384885787964,jumping
1783090645097479200,6.337479248046875,-1.350235482173413,-0.0422588867977261,-15.381286699867248,0.2230576276779174,0.244905337691307,-0.6198025941848755,jumping
1783090645107523300,6.3475234375,-0.6476721733435988,0.015358312651515,-16.01878030128479,0.2109458446502685,0.5595263838768005,-0.6517499089241028,jumping
1783090645117568300,6.357568359375,-0.4962248898133635,0.4376636875122785,-16.023675087589023,0.132668524980545,0.8772305250167847,-0.6861156225204468,jumping
1783090645127612200,6.367612060546875,-1.4465971305586396,0.8647393455147743,-15.857052446758749,0.1182807981967926,1.1687393188476562,-0.6762225031852722,jumping
1783090645137657000,6.377656982421875,-2.381550268375874,1.6360013659089805,-14.98796776551604,0.2360850870609283,1.2645506858825684,-0.6660838723182678,jumping
1783090645147701200,6.387701171875,-2.4021286537632345,2.775516560719907,-12.986044590747357,0.4070605635643005,1.10266375541687,-0.5889959931373596,jumping
1783090645157746200,6.39774609375,-1.7347572159543632,3.5088828579619524,-10.511263080966472,0.4639639556407928,0.6392835378646851,-0.4581219851970672,jumping
1783090645167790000,6.4077900390625,-0.6262247500367463,3.1640956070676443,-8.765499610090256,0.3657686710357666,0.1260668188333511,-0.3246099948883056,jumping
1783090645177835300,6.417835205078125,0.3702995855525136,2.2811831837415695,-8.660922214284538,0.3035565614700317,-0.2167218327522277,-0.2219539433717727,jumping
1783090645187879200,6.427879150390625,1.2507003183186054,1.9631079986840485,-8.618408768203855,0.3887401521205902,-0.4064422249794006,-0.1047396957874298,jumping
1783090645197924000,6.437924072265625,2.3614321939766407,1.7381731618776917,-7.181299743089079,0.5154109597206116,-0.5201032757759094,0.0103461239486932,jumping
1783090645207968300,6.44796826171875,3.329164004193246,1.1729250047206878,-5.153774509552121,0.528381884098053,-0.5539637804031372,0.0597323141992092,jumping
1783090645218012200,6.45801220703125,3.8833912933811545,0.922840529088676,-2.8359622615933415,0.3200561702251434,-0.5647998452186584,0.1200966760516166,jumping
1783090645228057000,6.46805712890625,3.22913652677685,1.38834762455523,-0.5453302815049886,0.0217187441885471,-0.6153514385223389,0.200600579380989,jumping
1783090645238101200,6.478101318359375,2.202338195085525,1.3653198001891371,1.8061007429391145,-0.2251822054386139,-0.752061665058136,0.211124762892723,jumping
1783090645248146200,6.488146240234375,1.2136590931039304,1.2152540341451763,4.090483599504828,-0.3580236136913299,-0.92929345369339,0.1938994377851486,jumping
1783090645258190000,6.498190185546875,0.9611485593687742,1.2013090954229235,7.004111284580826,-0.3835771679878235,-1.1412590742111206,0.2068343609571457,jumping
1783090645268235300,6.5082353515625,0.4205901319080963,1.3504437180966138,10.012492890584468,-0.3487062752246856,-1.3787622451782229,0.2649365365505218,jumping
1783090645278279200,6.518279052734375,0.0313861220624297,0.7237482818081975,12.594170594507457,-0.3103196620941162,-1.5948916673660278,0.2766531705856323,jumping
1783090645288324000,6.528323974609375,-0.0210228777518495,-0.2802913978472351,14.205165529453753,-0.3095771670341491,-1.6298896074295044,0.1995623856782913,jumping
1783090645298368300,6.5383681640625,0.2241221321839839,-1.3767451573058962,14.68873230548501,-0.3045312464237213,-1.5417503118515017,0.0806773975491523,jumping
1783090645308413200,6.5484130859375,1.052897014870122,-2.335334168384969,15.070783995890617,-0.237991914153099,-1.3054227828979492,0.0278677158057689,jumping
1783090645318457000,6.55845703125,1.6823049980528653,-2.538931325869262,14.814657025223967,-0.0351830087602138,-0.9337949752807616,0.1404055207967758,jumping
1783090645328502300,6.568502197265625,1.5597177521735428,-2.7016563747391102,14.188120871150494,0.0294290073215961,-0.5389283299446106,0.3206402957439422,jumping
1783090645338546200,6.578546142578125,0.9741308636039496,-2.7040561293572187,13.367136496210096,-0.1467593610286712,-0.1190361827611923,0.5483442544937134,jumping
1783090645348591000,6.588591064453125,0.2590709882292896,-2.484176530113816,12.02940203756094,-0.4344228506088257,0.4651865363121032,0.7346044182777405,jumping
1783090645358635300,6.59863525390625,-0.7211272125896065,-2.467713763351738,9.446610234916209,-0.7001773118972778,1.274085283279419,0.7766942381858826,jumping
1783090645368680200,6.60868017578125,-0.4258470660556107,-2.4277409416645765,7.208626725953817,-0.7624473571777344,1.7171093225479126,0.6238940358161926,jumping
1783090645378724000,6.61872412109375,1.3476888664305209,-1.8854568959876896,7.682872131410241,-0.6726148128509521,1.3952128887176514,0.3232412934303283,jumping
1783090645388769000,6.62876904296875,1.0320092712726443,-1.1777052247345448,5.07969805047214,-0.4761832654476166,0.8050135374069214,0.0551709532737731,jumping
1783090645398813200,6.638813232421875,0.1268937474342063,-0.5945128300860524,3.352570306482911,0.0216290261596441,0.5536732077598572,-0.057742491364479,jumping
1783090645408858000,6.648858154296875,0.723347811248526,-1.053642791736126,4.107618858700991,0.3088717460632324,0.4281770586967468,-0.1558799892663955,jumping
1783090645418902300,6.65890234375,-0.0703194446340203,-1.9848639034181832,5.978087736654281,0.3609591126441955,0.4101020991802215,-0.2680262327194214,jumping
1783090645428947200,6.668947265625,-0.6614505233272909,-3.815148947282135,8.21796451201737,0.3209714889526367,0.3934975564479828,-0.4089641571044922,jumping
1783090645438991000,6.6789912109375,-0.5727676659416407,-4.889041623103618,10.57406177470684,0.2676951885223388,0.2762134075164795,-0.529155433177948,jumping
