time,seconds_elapsed,accel_x,accel_y,accel_z,gyro_x,gyro_y,gyro_z,label
1783090656803097900,0.053097900390625,-0.1408831463526934,-0.4790399462565779,-0.5277110381841659,-0.0911294296383857,-0.3581465780735016,-0.0407229140400886,jumping
1783090656813142800,0.063142822265625,-0.2450726388193666,-0.3977694840192795,-0.1217202537864446,-0.0068658138625323,-0.2812751829624176,-0.0125736501067876,jumping
1783090656823187000,0.07318701171875,-0.3437450483649968,-0.2786751948222518,0.1851701049119234,0.0272540729492902,-0.2001659274101257,0.0023722755722701,jumping
1783090656833232600,0.083232666015625,-0.4541985696624964,-0.3421431661263108,0.3668465224891901,-0.0134681519120931,-0.126947596669197,0.0110363783314824,jumping
1783090656843276500,0.093276611328125,-0.5641822814911603,-0.4069061456769705,0.3313613676100969,-0.0942711234092712,-0.0388494282960891,0.0005038429517298,jumping
1783090656853321500,0.103321533203125,-0.5005479406442493,-0.3846358616799116,0.2426765374630689,-0.1523217260837555,0.0613730177283287,-0.0009361486881971,jumping
1783090656863365600,0.11336572265625,-0.2909873447109014,-0.4091083318963646,0.2417471476584672,-0.1705465465784073,0.1535908281803131,0.0068064592778682,jumping
1783090656873410600,0.12341064453125,-0.0630962884474545,-0.488189467395842,0.3044885582536459,-0.1561932861804962,0.1958310902118683,0.0138194188475608,jumping
1783090656883454500,0.133454345703125,-0.010388853675872,-0.6126937989428639,0.4301093266099691,-0.1527548730373382,0.1831405907869339,0.0174330621957778,jumping
1783090656893499600,0.143499755859375,-0.0728606535494327,-0.6079641400724649,0.5491308428317309,-0.1512720882892608,0.106872446835041,0.0487886518239975,jumping
1783090656903543600,0.15354345703125,-0.197147469888255,-0.5958747660890221,0.598146510413289,-0.1180171892046928,0.0135691305622458,0.09103624522686,jumping
1783090656913588500,0.16358837890625,-0.1861816931072622,-0.612529548291862,0.6189262635916472,-0.0675369426608085,-0.0715217813849449,0.1025542691349983,jumping
1783090656923632600,0.173632568359375,-0.1690099012929946,-0.479293336495757,0.7206032617807387,-0.0536016821861267,-0.1396702080965042,0.0828402191400528,jumping
1783090656933677600,0.183677490234375,-0.1850827188894152,-0.2047752613529563,0.9012509208321572,-0.0781862586736679,-0.1916708797216415,0.1000499129295349,jumping
1783090656943721500,0.193721435546875,-0.0831286573246121,0.0789350050270557,1.191712707298994,-0.1078743785619735,-0.2352694869041443,0.164653405547142,jumping
1783090656953766700,0.2037666015625,0.2472035133682191,0.343368031746149,1.6735545592337846,-0.1040248647332191,-0.2949288487434387,0.2640092670917511,jumping
1783090656963810600,0.213810546875,0.5822592054516077,0.414540293817222,2.093849763315916,-0.0826929435133934,-0.3527338206768036,0.3532108068466186,jumping
1783090656973855500,0.22385546875,0.8655636675097048,0.5195812154814601,2.811497682422399,-0.0776352286338806,-0.3892901241779327,0.4424391090869903,jumping
1783090656983899600,0.233899658203125,1.2992321479059754,0.4806099720522761,3.9506618718385695,-0.0934719815850257,-0.4783752560615539,0.5314618945121765,jumping
1783090656993944600,0.243944580078125,1.566967723301798,0.3960454367056489,5.004524443805217,-0.1505770832300186,-0.7038308382034302,0.6000480651855469,jumping
1783090657003988500,0.253988525390625,1.5970611021399497,0.3084764588460326,5.751352864688634,-0.2401687502861023,-1.0101484060287476,0.6488014459609985,jumping
1783090657014033700,0.26403369140625,1.3918470109783112,0.1999877348154783,6.165400698813795,-0.3073749542236328,-1.3412033319473269,0.7138212323188782,jumping
1783090657024077600,0.27407763671875,0.8151030618168413,0.1512327639967203,6.455609971824288,-0.3166006803512573,-1.6414923667907717,0.8041718602180481,jumping
1783090657034122500,0.28412255859375,0.198416978367418,0.1193579085692763,6.481318413576483,-0.2512466609477997,-1.8396241664886477,0.922164261341095,jumping
1783090657044166700,0.294166748046875,-0.4377076727844774,0.4137167024746537,6.528426201710104,-0.1453529894351959,-1.9056036472320557,1.110233187675476,jumping
1783090657054211600,0.304211669921875,-0.6646775225497782,0.5856316044941544,6.7016498482406135,-0.053331259638071,-1.855684757232666,1.3259252309799194,jumping
1783090657064255500,0.31425537109375,0.320955270538479,0.5433814855247736,7.010442825689911,0.0193096529692411,-1.7462056875228882,1.4826685190200806,jumping
1783090657074300400,0.324300537109375,1.3790798838637768,0.4487722337648272,6.650038318946957,0.1114106401801109,-1.6133034229278564,1.5279992818832395,jumping
1783090657084344600,0.334344482421875,0.0110625151537358,-0.1315995505049824,4.800180267345905,0.2472771406173706,-1.1602201461791992,1.467681884765625,jumping
1783090657094389800,0.3443896484375,-1.1182869672127067,-1.6366475548580288,3.799920690751075,0.3889722824096679,-0.4917367100715637,1.292518973350525,jumping
1783090657104433700,0.35443359375,-0.7179970248050987,-3.117450175748765,3.802810566973686,0.4765226542949676,0.017504408955574,1.0624732971191406,jumping
1783090657114478600,0.364478515625,-0.1368473880305886,-3.611455051425099,2.128544644600153,0.5151548385620117,0.3486941754817962,0.8442547917366028,jumping
1783090657124522500,0.3745224609375,-0.2426601708501577,-3.770115627335011,-1.4827496633052826,0.5087509751319885,0.701422393321991,0.592138946056366,jumping
1783090657134567400,0.3845673828125,-0.3258990105509757,-3.449928856950998,-4.832325464147329,0.4011644721031189,1.0159707069396973,0.3490807712078094,jumping
1783090657144611600,0.394611572265625,-0.9469806986108422,-2.777781583042443,-7.352499190315604,0.3112074136734009,1.2565022706985474,0.135545864701271,jumping
1783090657154656800,0.40465673828125,-1.8028551851466297,-2.51841080814898,-8.856788485255837,0.3406677842140198,1.452506422996521,-0.0541422180831432,jumping
1783090657164700400,0.414700439453125,-1.7795666640177368,-1.8358865171328187,-8.449704060402512,0.4354752600193023,1.5080418586730957,-0.1401636451482772,jumping
1783090657174745600,0.42474560546875,-2.063529297723621,-1.315840022227168,-7.690182162162661,0.5946661829948425,1.4608656167984009,-0.1724693179130554,jumping
1783090657184789800,0.434789794921875,-2.375548543743044,-1.4672659707084297,-7.098848838895559,0.7222999930381775,1.4044102430343628,-0.2129427045583725,jumping
1783090657194834400,0.44483447265625,-3.0999153958410024,-1.7606310774013398,-6.966643431451916,0.7571126818656921,1.2969977855682373,-0.3292490541934967,jumping
1783090657204878600,0.454878662109375,-3.124179484003782,-1.5560019465208053,-7.587727749860286,0.6695458292961121,0.9945511817932128,-0.407010406255722,jumping
1783090657214923500,0.464923583984375,-1.758573414219171,-0.6276464534029365,-9.66265595508516,0.5337139964103699,0.4127522110939026,-0.413617342710495,jumping
1783090657224967400,0.474967529296875,-0.3376315339207649,0.6350652052268385,-13.376402337205407,0.3701436817646026,-0.1900037080049514,-0.3719093203544616,jumping
1783090657235012600,0.4850126953125,0.1201039046309888,2.0017162540197373,-16.19507911747694,0.1616833508014679,-0.7302153706550598,-0.2852418720722198,jumping
1783090657245056500,0.495056396484375,-0.2936491843312978,2.850892411960661,-16.61925379334092,-0.0032584615983068,-1.27145254611969,-0.1468949168920517,jumping
1783090657255101700,0.505101806640625,-0.8649677474431693,3.353547919343412,-15.300112976002692,-0.0589793361723423,-1.7518203258514404,0.040187768638134,jumping
1783090657265145600,0.5151455078125,-2.012983936356753,3.851363000957668,-14.157234734499454,-0.0897574871778488,-1.9545817375183103,0.2043602019548416,jumping
1783090657275190500,0.5251904296875,-2.849682743909955,4.581088311348855,-13.755958119142054,-0.0853363871574401,-1.813610553741455,0.3744926750659942,jumping
1783090657285234400,0.535234375,-2.851310637372732,4.802437106361985,-13.855405166321992,-0.0588171556591987,-1.3363581895828247,0.5173938870429993,jumping
1783090657295279600,0.545279541015625,-2.889558242702484,4.383415575477481,-13.91428873244524,-0.0966253951191902,-0.7492705583572388,0.5518006682395935,jumping
1783090657305323500,0.555323486328125,-2.582792387166619,3.851452140545845,-13.333344116723536,-0.1896962076425552,-0.2891964316368103,0.5610884428024292,jumping
1783090657315368700,0.56536865234375,-2.0885363132081927,3.375718834619224,-12.216369547283648,-0.255460649728775,-0.0336088985204696,0.5473198890686035,jumping
1783090657325412600,0.57541259765625,-1.90157406418249,3.040371904504299,-10.55649689192176,-0.220246747136116,0.0251244530081748,0.4955464601516723,jumping
1783090657335457500,0.58545751953125,-1.673249731068313,2.8860470197111368,-8.381270575645566,-0.114823967218399,-0.0603237897157669,0.4440227746963501,jumping
1783090657345501700,0.595501708984375,-1.0282833095520734,2.6539564659312367,-6.048024611711502,-0.0271716117858886,-0.1538489460945129,0.4013679623603821,jumping
1783090657355546400,0.60554638671875,-0.2312919507481157,2.770242419709265,-3.3478514612674712,0.0135067552328109,-0.2454473376274109,0.4466552734375,jumping
1783090657365590500,0.615590576171875,0.6195403038367628,3.017824264870584,-0.3446861286073923,0.0354530662298202,-0.3677586019039154,0.5722752213478088,jumping
1783090657375635700,0.6256357421875,1.5293379576094448,2.771274393105507,2.8474802654296156,0.0584882088005542,-0.5845458507537842,0.7293251156806946,jumping
1783090657385679400,0.635679443359375,2.0743675026021897,2.0497285897776485,5.627721808844805,0.0931484475731849,-0.8477239608764648,0.8245800137519836,jumping
1783090657395724500,0.645724609375,2.2920700500674545,0.9994786553502082,7.616937477731704,0.1130892187356948,-1.0432456731796265,0.8180259466171265,jumping
1783090657405768700,0.655768798828125,2.4398256394729017,0.0492503531202673,9.364129520106315,0.0517547577619552,-1.166210412979126,0.7348783612251282,jumping
1783090657415813400,0.6658134765625,2.7771085060864684,-0.5664905584335327,11.03799913663864,-0.1169900000095367,-1.2904272079467771,0.6366598010063171,jumping
1783090657425857500,0.675857421875,3.310258520454168,-1.0741562951937318,12.554570405524968,-0.3568279147148132,-1.495020866394043,0.5394168496131897,jumping
1783090657435902700,0.68590283203125,3.9929242657676336,-1.420672269576788,13.669092321115732,-0.6042875051498413,-1.8159868717193604,0.4598338603973388,jumping
1783090657445946400,0.6959462890625,4.563112509675324,-1.5440674708381297,13.794082974874971,-0.804537832736969,-2.095409870147705,0.4214135110378265,jumping
1783090657455991600,0.705991455078125,4.812236615842581,-1.6012068236425518,12.96305651386976,-0.8703842759132385,-2.051703691482544,0.3898911774158478,jumping
1783090657466035700,0.71603564453125,4.670775888797641,-1.6469471228152512,11.820659918403624,-0.7915472388267517,-1.6972671747207642,0.3162460029125213,jumping
1783090657476080600,0.72608056640625,4.285888974966109,-1.6773755788266658,10.990714822894336,-0.5553831458091736,-1.0651191473007202,0.2541764676570892,jumping
1783090657486124500,0.73612451171875,3.9350922545239326,-1.7139561277270317,10.673584809732436,-0.2826538980007171,-0.419674664735794,0.2730694711208343,jumping
1783090657496169500,0.74616943359375,3.6754663358256217,-1.7988550095945597,10.135929885160923,-0.0743366777896881,0.14983931183815,0.3567836284637451,jumping
1783090657506213600,0.756213623046875,3.31457199973911,-2.166780559492111,9.451319143259523,0.0437920950353145,0.7144859433174133,0.4464445114135742,jumping
1783090657516258600,0.766258544921875,3.002029606628418,-2.730913741144538,8.745626450362801,0.1244680285453796,1.2762430906295776,0.49555703997612,jumping
1783090657526302500,0.776302490234375,2.8898835291340945,-3.2090304350763557,7.988031136271357,0.2186693698167801,1.758528470993042,0.4620121121406555,jumping
1783090657536347600,0.78634765625,2.5033105619117615,-3.5607413477540013,6.988668800777196,0.3184832632541656,2.1520512104034424,0.3486316204071045,jumping
1783090657546391600,0.7963916015625,2.1435630577728153,-4.0449551895171405,6.0819298039227725,0.3772078156471252,2.4905917644500732,0.1873055845499038,jumping
1783090657556436500,0.8064365234375,2.1145336549043656,-4.199603314915299,5.709709187179803,0.3379831910133362,2.8517701625823975,-0.0592277646064758,jumping
1783090657566480600,0.816480712890625,1.9754355653375384,-3.7350916602268818,6.387914738214016,0.1332779824733734,3.0424208641052246,-0.3463687300682068,jumping
1783090657576525600,0.826525634765625,1.3533565368033944,-3.708039987172186,7.229487727674841,-0.1497106999158859,2.97750473022461,-0.5404499769210815,jumping
1783090657586569500,0.836569580078125,0.9398241048544644,-3.640278994849324,8.350143031454087,-0.3185519278049469,2.677306890487671,-0.7043142914772034,jumping
1783090657596614700,0.84661474609375,0.6730747640170156,-3.809222479842603,8.996636516407131,-0.3889293372631073,2.181394100189209,-0.8051005601882935,jumping
1783090657606658600,0.856658447265625,0.4401952518165111,-3.732521225216984,9.025672641277312,-0.4202640652656555,1.63045334815979,-0.7988173365592957,jumping
1783090657616703500,0.866703369140625,0.4847833122141659,-3.4046497455492615,8.854287900611757,-0.4351787567138672,1.052293062210083,-0.7698002457618713,jumping
1783090657626747600,0.87674755859375,0.5119651875197887,-3.233205675911903,8.518574767532945,-0.3554897904396057,0.5283153653144836,-0.7425156235694885,jumping
1783090657636792600,0.88679248046875,0.7860987933896482,-2.8262781951859592,7.457558816680312,-0.2606005668640136,0.2381035685539245,-0.700808048248291,jumping
1783090657646836500,0.89683642578125,1.4588403799295424,-2.403354688426852,7.251247724062204,-0.2753632664680481,0.0593173019587993,-0.676528811454773,jumping
1783090657656881700,0.906881591796875,1.977174810220301,-2.0533950033307073,8.31376706521511,-0.0947977304458618,-0.1376681923866272,-0.5830230712890625,jumping
1783090657666925600,0.916925537109375,1.9623709165811536,-1.685234183372557,8.825614179313183,0.0784158632159233,-0.3453399240970611,-0.6087960600852966,jumping
1783090657676970500,0.926970458984375,2.063584681172669,-1.0284051823660731,9.069751436978578,0.0231763012707233,-0.7640022039413452,-0.6664104461669922,jumping
1783090657687014700,0.9370146484375,-0.1886800127290189,0.1168292668744921,7.670574375373125,-0.120685264468193,-1.206560492515564,-0.6632961630821228,jumping
1783090657697059600,0.9470595703125,-0.7197776246115565,1.6911939685598014,5.670993379816412,-0.2752955555915832,-1.3914839029312134,-0.4199582040309906,jumping
1783090657707103500,0.957103515625,-1.738020747794956,2.411025369185209,4.796866612753272,-0.3001739978790283,-1.38163423538208,-0.108062632381916,jumping
1783090657717148400,0.9671484375,1.0330608992174266,2.756254226367175,4.304226303428411,-0.3124770820140838,-1.083836793899536,0.1587328463792801,jumping
1783090657727192600,0.977192626953125,5.5218736624509095,2.864733013525605,3.3903637383043765,-0.3163905739784241,-0.8030346632003784,0.1793126910924911,jumping
1783090657737237500,0.987237548828125,1.767237782189995,2.8377751562342044,-0.3198024472415447,-0.1766395270824432,-0.1316589117050171,0.0076935570687055,jumping
1783090657747281700,0.99728173828125,-3.1253812610089775,1.9822259561300275,-5.199546665167809,-0.0243671685457229,1.0025252103805542,0.0025360796134918,jumping
1783090657757326600,1.00732666015625,-5.66868627191782,1.9766966713145373,-9.545519521957637,0.1705676168203354,2.045583963394165,0.1311359405517578,jumping
1783090657767370500,1.01737060546875,-4.140952973026037,3.2223689323380587,-14.375581717348098,0.3023219108581543,3.063673257827759,0.3170546591281891,jumping
1783090657777415400,1.02741552734375,1.04396515506953,2.778301223002374,-20.011934576416017,0.1209915950894355,4.400631427764893,0.3313352465629577,jumping
1783090657787459600,1.03745947265625,2.549955700969696,-0.1640948759183287,-20.755142468714713,-0.090105727314949,5.360348224639893,-0.1221566125750541,jumping
1783090657797504800,1.0475048828125,2.564487499669194,-0.4714803246572613,-16.827323712325096,-0.1023599356412887,5.511285781860352,-0.4165080785751343,jumping
1783090657807548400,1.05754833984375,0.7078584926284849,1.419666891926527,-12.029070029127595,0.1771601289510727,4.892221927642822,-0.3111757934093475,jumping
1783090657817593600,1.067593505859375,-2.620672620488703,1.528715295666456,-9.862630830419064,0.5245646834373474,4.116998672485352,-0.233665332198143,jumping
1783090657827637800,1.0776376953125,-3.670486501586437,0.3222241214305162,-7.833030544173717,0.7866013646125793,3.048830986022949,-0.2413035482168197,jumping
1783090657837682200,1.08768212890625,-2.723406726515293,-0.7146805937334895,-6.6356888910770415,0.918967068195343,1.6058367490768433,-0.4299897849559784,jumping
1783090657847726000,1.09772607421875,-0.6739888101220131,-0.3445198321297764,-8.492339087036251,0.6926548480987549,0.0088993273675441,-0.5845298171043396,jumping
1783090657857771300,1.107771240234375,0.5078348097167908,0.0242193722382187,-11.715417921209337,0.4031061232089996,-1.4550060033798218,-0.6952438950538635,jumping
1783090657867815200,1.117815185546875,0.9627580403920264,1.112350416770577,-14.493203888165947,0.2799218595027923,-2.5211498737335205,-0.6625943779945374,jumping
1783090657877860400,1.1278603515625,1.9365078687891364,2.821872069181502,-15.05388312997222,0.0932394489645958,-3.2350504398345947,-0.5449749827384949,jumping
1783090657887904300,1.137904296875,2.312154368327558,3.5161110556498167,-15.506075109052658,-0.0400453694164752,-3.565640687942505,-0.4275045692920685,jumping
1783090657897949200,1.14794921875,1.8446707120910288,3.001603490170836,-16.25348688278198,-0.025221923366189,-3.242971420288086,-0.4214656352996826,jumping
1783090657907993000,1.1579931640625,1.7537652832850812,3.2604306597068904,-15.916114876580238,0.1012377515435218,-2.719393730163574,-0.4441605806350708,jumping
1783090657918037200,1.168037353515625,1.1332337764538825,3.084069591933489,-15.786038882380725,0.2685034871101379,-2.0864477157592773,-0.4862209260463714,jumping
1783090657928082200,1.178082275390625,0.3615870675910264,2.146352688491344,-15.443677397328614,0.3157170712947845,-1.48289692401886,-0.5701800584793091,jumping
1783090657938126000,1.1881259765625,-0.6397150037940591,1.2070520229890942,-15.059443102186917,0.2557646930217743,-0.9528866410255432,-0.6887044310569763,jumping
1783090657948171300,1.198171142578125,-1.3292623983800411,0.2893263526961207,-14.703851548683645,0.2228360325098037,-0.5307391285896301,-0.835706353187561,jumping
1783090657958215200,1.208215087890625,-1.39923902092576,-0.1723106233388185,-13.74638014345765,0.2802881896495819,-0.2941982448101043,-0.9694679379463196,jumping
1783090657968260400,1.21826025390625,-1.028451871052012,-0.1373597214668989,-11.81061666329503,0.3373285830020904,-0.1643047034740448,-1.0558862686157229,jumping
1783090657978304300,1.22830419921875,-0.2114792890362441,0.4857639938145875,-8.55970757291019,0.3302842974662781,-0.2584179639816284,-1.0385338068008425,jumping
1783090657988349200,1.23834912109375,0.2859199052534997,1.7193085946708917,-4.982622993120551,0.3279412686824798,-0.6375095844268799,-0.9055280685424804,jumping
1783090657998393300,1.248393310546875,0.3078786390833556,2.697808467139303,-1.4913041411608456,0.3020994365215301,-1.101161241531372,-0.7449265718460083,jumping
1783090658008438000,1.25843798828125,0.7779952741719782,3.1577956301406025,1.7534774062544107,0.2040729969739914,-1.5221638679504397,-0.5762481093406677,jumping
1783090658018482200,1.268482177734375,1.3444379018105566,3.2415207920536395,4.267659783053398,0.1445797383785247,-1.753123164176941,-0.4167028665542602,jumping
1783090658028527400,1.27852734375,1.3726973432198166,2.7952900594651697,6.431540529450774,0.0797237753868103,-1.777022123336792,-0.2911508083343506,jumping
1783090658038571000,1.288571044921875,1.2337117741167545,1.7529194801107049,8.799112541356683,-0.0346513427793979,-1.666308879852295,-0.2080165743827819,jumping
1783090658048616200,1.2986162109375,1.2678878922238943,0.6216489665538072,11.664440598165989,-0.2163465619087219,-1.6315793991088867,-0.2009115219116211,jumping
1783090658058660400,1.308660400390625,1.500410992202163,-0.0507198411509394,13.994436035871503,-0.4642820358276367,-1.6658481359481812,-0.2314563542604446,jumping
1783090658068705000,1.318705078125,2.3372737581454217,-0.0219102185130119,15.4219203235507,-0.7239758968353271,-1.7866837978363037,-0.2575324475765228,jumping
1783090658078749200,1.328749267578125,3.4759865505322813,0.3249599761351943,15.574042145341634,-0.8493275046348572,-1.9804298877716064,-0.2397486716508865,jumping
1783090658088794000,1.338794189453125,4.070191629843413,0.1999462337613105,14.21432615650892,-0.8000800609588623,-2.0297014713287354,-0.211952731013298,jumping
1783090658098838000,1.348838134765625,4.529898806859553,-0.4153440114155411,12.409855645120142,-0.6130075454711914,-1.94569993019104,-0.1876187622547149,jumping
1783090658108883200,1.35888330078125,4.431204623873532,-1.0902671797782182,10.218078591537475,-0.2341901957988739,-1.6972075700759888,-0.1845529377460479,jumping
1783090658118927400,1.36892724609375,3.797508368912339,-1.8629975191593169,8.989797025775909,0.2580739259719848,-1.1882680654525757,-0.2139752656221389,jumping
1783090658128972300,1.37897216796875,3.2366309741854664,-2.3807424591243267,9.281133841511606,0.5812138915061951,-0.6086761355400085,-0.2653644382953644,jumping
1783090658139016200,1.38901611328125,2.7001564915701746,-2.3392262073874472,9.67384195048809,0.6406493782997131,-0.0548824109137058,-0.3210388123989105,jumping
1783090658149061000,1.39906103515625,2.5586720913887024,-1.9219611647814512,9.198684690883756,0.514321506023407,0.5332152247428894,-0.3617777228355407,jumping
1783090658159105300,1.409105224609375,2.804252533599734,-1.4765490550994873,8.404254560869932,0.3591334223747253,1.1576987504959106,-0.3730070292949676,jumping
1783090658169150200,1.419150146484375,3.114013479298353,-1.4673156550690531,7.755762011054157,0.1938038319349289,1.674616456031799,-0.3930188119411468,jumping
1783090658179194000,1.429194091796875,3.0585815149337052,-2.025519446672499,7.303019996875524,0.0319287404417991,1.992653489112854,-0.4403314888477325,jumping
1783090658189239300,1.4392392578125,2.8405206555500624,-2.7777219618096947,7.219650808793306,-0.1010391637682914,2.022836446762085,-0.5258219242095947,jumping
1783090658199283200,1.449283203125,2.808885161836445,-3.459686280855536,7.3585864012748,-0.1846534609794616,1.68690824508667,-0.59511399269104,jumping
1783090658209328000,1.459328125,2.029823865868151,-3.7249636494442817,7.657518494445085,-0.1822944432497024,1.0909852981567385,-0.6702318787574768,jumping
1783090658219372300,1.469372314453125,1.4920508678749205,-4.062571510228515,8.194922659125924,-0.1827340573072433,0.3325528800487518,-0.723168134689331,jumping
1783090658229417000,1.4794169921875,1.741244239886105,-4.013056368692219,8.467031627300381,-0.2049075365066528,-0.3834896385669708,-0.6870663166046143,jumping
1783090658239461000,1.489461181640625,1.9927818369358776,-3.8461595870956775,8.172129228037596,-0.2682604193687439,-0.9976695775985718,-0.6029075980186462,jumping
1783090658249506300,1.49950634765625,2.3424460462167858,-3.5645310954257843,7.45938953923881,-0.3557039797306061,-1.3216021060943604,-0.4870150685310364,jumping
1783090658259550200,1.50955029296875,2.630750070127845,-3.190012430873513,7.982236186257004,-0.3236549794673919,-1.4153858423233032,-0.3197703063488006,jumping
1783090658269595100,1.51959521484375,3.3484123100206253,-2.6071485375270247,8.256042021477223,-0.28079754114151,-1.501467227935791,-0.1400484889745712,jumping
1783090658279639300,1.529639404296875,4.084624644343554,-1.9933494076907632,8.374982289156318,-0.1922494620084762,-1.537750244140625,0.0653602257370948,jumping
1783090658289684200,1.539684326171875,4.752788693834841,-1.37025725659132,8.560840960854291,-0.0865222290158271,-1.6176464557647705,0.2619856894016266,jumping
1783090658299728100,1.54972802734375,5.006978851220011,-0.9501555292546748,8.662745338058471,0.0679739639163017,-1.634089708328247,0.4309886693954468,jumping
1783090658309773300,1.559773193359375,4.880053137744963,-0.7429372586637735,9.055958473947644,0.1769720762968063,-1.5491293668746948,0.5939224362373352,jumping
1783090658319817200,1.569817138671875,4.648991342490911,-0.3873381063759327,9.57475379974842,0.1555266678333282,-1.3419479131698608,0.7278292179107666,jumping
1783090658329862100,1.579862060546875,4.297269908419251,-0.4669859358474612,10.582142205309868,0.041321262717247,-1.2053133249282837,0.8521040678024292,jumping
1783090658339906300,1.58990625,3.285213803307712,-0.5534861154317855,10.783830314302444,0.002687067259103,-1.13585364818573,0.969282329082489,jumping
1783090658349951200,1.599951171875,2.4540318594798443,0.1728703030481934,9.357637819999455,0.1637140363454818,-1.0279695987701416,1.1558573246002195,jumping
1783090658359995100,1.6099951171875,2.2261536626979708,0.9542778698816896,7.643061514547467,0.456184059381485,-0.9544095993041992,1.3559833765029907,jumping
1783090658370040000,1.6200400390625,2.6466642630964516,2.113118819670379,5.61497338643074,0.6721416115760803,-0.7678232192993164,1.4668254852294922,jumping
1783090658380084200,1.630084228515625,3.2549531050786373,3.1994042363360524,3.2937335021108387,0.7223843932151794,-0.4610633552074432,1.4972283840179443,jumping
1783090658390129200,1.640129150390625,-0.6556979511499405,3.331526933932304,0.5132154798418284,0.541605532169342,0.0349386967718601,1.3228421211242676,jumping
1783090658400173300,1.65017333984375,-4.968056707629561,2.7307389690995216,-3.343765068736672,0.2291737794876098,0.9091176390647888,1.1739983558654783,jumping
1783090658410218200,1.66021826171875,-7.174524549865723,2.6561253344029185,-8.885060055494307,0.170378640294075,2.0805935859680176,1.1087077856063845,jumping
1783090658420262100,1.67026220703125,-8.476323187258838,2.260251454871893,-17.766582584512232,0.3879430592060089,3.7689414024353023,0.7939114570617676,jumping
1783090658430307000,1.68030712890625,-7.67724143204689,0.2086322290420532,-26.99228329261541,0.3992945253849029,5.920773983001709,0.2246549576520919,jumping
1783090658440351200,1.690351318359375,-4.499189488080144,-0.8796046139523387,-27.082299663627147,-0.0005834016483277,7.210970401763916,-0.3804957270622253,jumping
1783090658450395100,1.70039501953125,-0.1229622166715562,1.34618927552253,-19.08605891741514,-0.1702890843153,6.642036437988281,-0.7649450898170471,jumping
1783090658460440000,1.710440185546875,0.6836625012658536,2.8064541352972388,-14.463991822206973,0.1543366461992263,5.187274932861328,-1.0832748413085938,jumping
1783090658470484200,1.720484130859375,-0.0063468848086893,3.794072549244761,-12.785393423587085,0.5923570990562439,3.528268337249756,-1.2036590576171875,jumping
1783090658480529400,1.730529296875,-1.8767285228699444,2.919278842705488,-12.524829931777717,0.7492616176605225,2.0043625831604004,-1.1911368370056152,jumping
1783090658490573000,1.740572998046875,-2.9777199257582425,0.3235749515175819,-12.957536289143562,0.5135407447814941,0.6041873693466187,-1.1963965892791748,jumping
1783090658500618200,1.7506181640625,-2.9843519111186265,-0.9298892785564064,-13.628501952052115,0.1233783736824989,-0.8195896148681641,-1.180656671524048,jumping
1783090658510662100,1.760662109375,-3.3964918657958507,-0.2706158070072531,-16.223942808389662,-0.3210403621196747,-1.8306876420974731,-1.093382716178894,jumping
1783090658520707000,1.77070703125,-3.208142546325922,1.409704008577764,-17.728663480484485,-0.6434011459350586,-2.3596832752227783,-0.9431074857711792,jumping
1783090658530751200,1.780751220703125,-3.0795380859836934,3.1487711966857312,-18.67519380497932,-0.6397427916526794,-2.295717239379883,-0.7361588478088379,jumping
1783090658540796200,1.790796142578125,-1.9213352879680692,4.96056138343811,-19.283326871877907,-0.4261287152767181,-1.662026047706604,-0.4528654217720032,jumping
1783090658550840000,1.800840087890625,-0.3069832976788282,7.583057419961691,-18.974874670690298,-0.1208630800247192,-0.8250200152397156,-0.0561242029070854,jumping
1783090658560885200,1.81088525390625,0.2176775591544806,9.054648560392856,-17.19780303835869,0.1762957870960235,-0.0336544774472713,0.3954461216926574,jumping
1783090658570929400,1.820929443359375,-0.6834015122421085,7.450965409764647,-13.933264651072024,0.2228068262338638,0.5601822137832642,0.7313042879104614,jumping
1783090658580974000,1.83097412109375,-2.027561327763647,4.647948555439711,-10.822250938111544,0.0081560220569372,0.90614253282547,0.8809993863105774,jumping
1783090658591018200,1.841018310546875,-2.261637502402812,2.5016920207992195,-9.27942762211561,-0.1754103451967239,1.023825764656067,0.8610920310020447,jumping
1783090658601063200,1.851063232421875,-1.145355006880313,1.681677367673814,-8.815450512695312,-0.0653405487537384,1.028759479522705,0.7908176183700562,jumping
1783090658611107000,1.861107177734375,0.099735289536789,1.9615359270617363,-7.797091800308227,0.205284297466278,0.9295945763587952,0.7517631649971008,jumping
1783090658621152300,1.87115234375,0.9791010532319544,1.963099815377593,-5.975692950472236,0.3401370048522949,0.6976133584976196,0.781826376914978,jumping
1783090658631196200,1.881196044921875,1.223800109498575,0.3156251615568995,-3.4116339053481815,0.3070829212665558,0.2184310555458068,0.6936451196670532,jumping
1783090658641241000,1.891240966796875,0.9309601226583124,0.0313920403465628,0.1731482432067394,0.3635247349739074,-0.3908768892288208,0.5088387727737427,jumping
1783090658651285200,1.90128515625,0.9322050081528722,-0.148592478621006,3.512574405956268,0.3227346837520599,-1.0864697694778442,0.2395662516355514,jumping
1783090658661330200,1.911330078125,0.6951661112505942,-0.0101961075827479,4.732029106661677,0.0810751169919967,-1.433226466178894,0.0359814241528511,jumping
1783090658671374000,1.9213740234375,0.2918313212543725,0.2957546321779489,7.784046440774202,-0.0873668938875198,-1.6008799076080322,-0.0256502479314804,jumping
1783090658681419000,1.9314189453125,-0.2992730155624449,-0.2476867668405175,11.394529432296752,-0.1132414564490318,-1.6825494766235352,-0.0239110607653856,jumping
1783090658691463200,1.941463134765625,0.2785011534295976,-0.6736556326448917,13.335135091793536,-0.1590177416801452,-1.8095319271087649,-0.0071523198857903,jumping
1783090658701508400,1.95150830078125,0.8844583375938236,-1.1328797023192048,15.870690511488911,-0.2056637555360794,-1.9664080142974856,0.0196933690458536,jumping
1783090658711552300,1.96155224609375,1.605205976281315,-0.97022304251045,17.332876694715022,-0.2881213426589966,-2.1674623489379883,0.097215324640274,jumping
1783090658721597200,1.97159716796875,2.2457000746890903,-0.5873392851948738,17.617618349969387,-0.3705169558525085,-2.280165910720825,0.2238592654466629,jumping
1783090658731641300,1.981641357421875,2.6643881358355284,-0.5242366400718689,16.65844481700063,-0.4022485315799713,-2.2424936294555664,0.3554322123527527,jumping
1783090658741686000,1.99168603515625,2.987066138513386,-0.5903758764117956,14.542511816692352,-0.2928082346916199,-2.0502872467041016,0.4845359921455383,jumping
1783090658751730200,2.001730224609375,3.1580063502818345,-0.8544237032055855,12.23611703480482,-0.0699634477496147,-1.734307050704956,0.5996013283729553,jumping
1783090658761775400,2.011775390625,3.102214028172195,-1.5404524952113627,10.507502267128228,0.2184448391199112,-1.2725845575332642,0.6710741519927979,jumping
1783090658771819000,2.021819091796875,2.873526268573105,-2.322072243490815,9.110523007827997,0.5201548933982849,-0.6713937520980835,0.6702997088432312,jumping
1783090658781864200,2.0318642578125,2.3922192541673777,-2.4630937023356556,7.658225765931606,0.7494617104530334,0.0779953151941299,0.6409457325935364,jumping
1783090658791908400,2.041908447265625,2.0193007182881235,-2.425268998593092,6.346550462168454,0.8632564544677734,0.9687795042991638,0.6136267185211182,jumping
1783090658801953000,2.051953125,1.970792707967758,-2.7548198096498844,5.775142905598878,0.8349257707595825,1.8522032499313352,0.5651187896728516,jumping
1783090658811997200,2.0619970703125,2.1013917031280696,-3.4019904632121323,5.755509399846196,0.6813047528266907,2.7005133628845215,0.4185812771320343,jumping
1783090658822042000,2.0720419921875,3.0410093256250024,-4.267596070167422,6.156597214633226,0.4510380327701568,3.3775527477264404,0.1121792122721672,jumping
1783090658832085800,2.082085693359375,3.083141955694556,-3.135207366235554,6.90734777739644,0.3247043490409851,3.774113416671753,-0.1290698945522308,jumping
1783090658842131000,2.092130859375,2.2316218649759887,-2.433354982154071,7.738143936777115,0.1362674087285995,3.688111543655395,-0.4093640744686126,jumping
1783090658852174800,2.1021748046875,1.795387041223049,-3.1827398095220327,8.362009410336613,-0.0166579596698284,3.2588343620300293,-0.7079193592071533,jumping
1783090658862219800,2.1122197265625,1.223763649945706,-3.5090637674868104,9.058416388493775,-0.0488011725246906,2.5613293647766113,-0.8903641700744629,jumping
1783090658872264000,2.122263916015625,0.7421868056226522,-3.950535322849453,9.178429838362336,-0.0730359405279159,1.739477276802063,-0.991597294807434,jumping
1783090658882307800,2.132307861328125,0.3561952915500849,-4.018759841030836,9.171528972932697,-0.0925609767436981,0.9454225897789,-1.0399569272994995,jumping
1783090658892352800,2.142352783203125,0.3559784339290112,-3.718505851607024,9.195926916608212,-0.0688641667366027,0.1893325299024582,-1.0589582920074463,jumping
1783090658902397000,2.15239697265625,0.4898476463990285,-3.2315549860954285,7.916385703730583,-0.1555076539516449,-0.2475218921899795,-1.061329007148743,jumping
1783090658912441900,2.16244189453125,0.9231616508018224,-2.8131588936328886,8.82476019283235,-0.104663111269474,-0.6931560635566711,-1.049820065498352,jumping
1783090658922485800,2.17248583984375,1.113724408537522,-1.7105065717950465,8.293679970476031,0.069524310529232,-0.7253475189208984,-0.9251438975334167,jumping
1783090658932531000,2.182531005859375,1.53243387779817,-1.2339204484313726,9.515497893181443,0.3081816136837005,-0.7191165089607239,-0.8708255290985107,jumping
1783090658942574800,2.192574951171875,1.2275552973136306,-0.1752922694981098,10.748422316312787,0.3836112320423126,-0.6042248606681824,-0.7252550721168518,jumping
1783090658952619800,2.202619873046875,1.4922572041019797,0.7858584087625146,10.992373696017264,0.1718286722898483,-0.6983212828636169,-0.4779265522956848,jumping
1783090658962664000,2.212663818359375,0.9054154201004654,1.226775252851844,9.915084655755756,-0.1491405516862869,-0.6930810809135437,-0.2333384305238723,jumping
1783090658972708600,2.22270849609375,1.1285621313810348,1.8625035981625315,8.16606072177887,-0.4116997420787811,-0.6666297912597656,0.0332237593829631,jumping
1783090658982752800,2.232752685546875,0.709307522393018,1.940217829222977,5.909766480100155,-0.5268832445144653,-0.5870248079299927,0.3038677275180816,jumping
1783090658992798000,2.2427978515625,-0.5169625574156642,2.578906193383038,2.292680144789814,-0.5442185401916504,-0.2096024602651596,0.6148756742477417,jumping
1783090659002841600,2.252841552734375,0.3961158715933561,3.540674419020116,-0.3508949201196432,-0.5767818093299866,0.3458161950111389,0.9588476419448853,jumping
1783090659012886800,2.26288671875,2.1215143075719474,4.428035638448596,-1.5793115104377269,-0.6130974888801575,0.8244863748550415,1.1303954124450684,jumping
1783090659022931000,2.272930908203125,0.1343673347178846,4.682931606015563,-5.340222379314899,-0.7003439664840698,1.3043879270553589,1.1178032159805298,jumping
1783090659032976000,2.282975830078125,-1.5718477504283188,4.978619602698087,-9.613922027054429,-0.8376917243003845,1.6672800779342651,1.2954057455062866,jumping
1783090659043019800,2.293019775390625,-2.579782099434733,4.075791641807556,-14.23945241445899,-0.770307183265686,2.132004976272583,1.4664562940597534,jumping
1783090659053064700,2.303064697265625,0.5933814149033277,2.18037887673378,-15.762121415698529,-0.6499229669570923,2.2879364490509033,1.4634597301483154,jumping
1783090659063108900,2.31310888671875,2.3981861997477707,-1.3180381167933344,-13.8317425511837,-0.538884162902832,1.845291018486023,1.218191623687744,jumping
1783090659073153800,2.32315380859375,-0.3068497344270348,-4.296835900916159,-13.121730826044082,-0.1499870419502258,1.2688751220703125,0.6845184564590454,jumping
1783090659083198000,2.333197998046875,-2.549490421545505,-4.804708558425307,-13.789205724227427,0.1379156708717346,0.706937849521637,0.1932660043239593,jumping
1783090659093243000,2.343242919921875,-4.332688720063865,-3.1458582318484782,-13.823708882331848,0.2752780616283417,0.2479740381240844,-0.2266154289245605,jumping
1783090659103286800,2.353286865234375,-2.826557304388285,0.4911699445113539,-12.395434321057795,0.2103849500417709,-0.3841902613639831,-0.4947035908699035,jumping
1783090659113331700,2.363331787109375,-1.0335857998743652,3.8010248526006936,-12.320386386597155,0.1307830661535263,-1.0457301139831543,-0.549516499042511,jumping
1783090659123375900,2.3733759765625,-0.8957800151403993,2.632782452738285,-13.627615816867351,0.1592792123556137,-1.4822808504104614,-0.6997451186180115,jumping
1783090659133420800,2.3834208984375,-1.2633359280079604,-0.4389814921125769,-14.417569093728064,0.1828180849552154,-1.906948804855347,-0.949875831604004,jumping
1783090659143464700,2.393464599609375,-1.547896965998411,0.189937757705152,-15.519098256754877,0.2106867432594299,-2.2247323989868164,-0.9638068675994872,jumping
1783090659153510000,2.403510009765625,-1.6923507373794913,1.7081225992679594,-19.440259308820963,0.0547317564487457,-1.7543823719024658,-0.8128564953804016,jumping
1783090659163553800,2.4135537109375,-2.0668024741753936,2.7425740760609507,-20.0365780192852,0.1807801723480224,-1.0892425775527954,-0.5753032565116882,jumping
1783090659173598700,2.4235986328125,-2.7298218542546033,2.7886998674198984,-19.08609398872852,0.332447201013565,-0.5288735628128052,-0.4295724332332611,jumping
1783090659183643000,2.433642822265625,-2.7183967893987893,2.688990954433381,-17.97970744879842,0.3398053646087646,-0.1490329653024673,-0.2313518524169922,jumping
1783090659193687800,2.443687744140625,-2.9919442659437654,2.685837458838522,-16.002584368765355,0.1770119369029998,0.1935273110866546,-0.0409278608858585,jumping
1783090659203731700,2.453731689453125,-3.189803172037005,2.201050493362546,-12.873566212558746,-0.0351692326366901,0.3822885155677795,0.0767718702554702,jumping
1783090659213777000,2.46377685546875,-3.093963501699269,1.2426117044091225,-10.533280851507186,-0.2046469449996948,0.5745351910591125,0.0782262235879898,jumping
1783090659223820800,2.47382080078125,-2.413072949364781,0.3011412936523556,-8.930959052360057,-0.3805834352970123,0.7793315649032593,-0.0534729063510894,jumping
1783090659233864700,2.48386474609375,-1.1854790736064311,-0.0208858439013361,-7.582648839160799,-0.606355607509613,0.9290920495986938,-0.2344288378953933,jumping
1783090659243910000,2.493909912109375,0.0070946344360709,1.2650117522656916,-5.989758885225653,-0.7558587193489075,0.874778151512146,-0.2937998175621032,jumping
1783090659253954000,2.5039541015625,0.5395771613383665,3.6307571332663295,-4.316688310116529,-0.6757833361625671,0.4858684241771698,-0.1342921704053878,jumping
1783090659263998700,2.513998779296875,1.0387480780083689,5.226062916171551,-2.1289707610577344,-0.3980566561222076,-0.0895848050713539,0.1177628487348556,jumping
1783090659274043000,2.52404296875,1.7527498226322231,5.142951502242684,0.4801338789731263,-0.0910226702690124,-0.8665047883987427,0.3860052227973938,jumping
1783090659284087800,2.534087890625,2.308707735005021,3.78693202984035,1.8028700904548167,0.1482065469026565,-1.533010482788086,0.5580792427062988,jumping
1783090659294131700,2.544131591796875,2.2986942905128003,2.10920018492192,2.617138893404603,0.3210392892360687,-1.7968404293060305,0.5793266892433167,jumping
1783090659304177000,2.554177001953125,1.548669411675632,0.7220756724208593,4.583919443121553,0.3959177434444427,-1.7818727493286133,0.4848341047763824,jumping
1783090659314220800,2.564220703125,0.5464968410663307,-0.0091641341865062,8.202647700420021,0.4113741815090179,-1.7370448112487793,0.3342017233371734,jumping
1783090659324265700,2.574265625,0.3304812237747013,-0.4100827298864722,11.925650571185349,0.3798677027225494,-1.7980276346206665,0.2231465429067611,jumping
1783090659334310000,2.584309814453125,1.1771680491179226,-0.6676306732669472,14.370978022944929,0.2811104953289032,-1.8864704370498655,0.1867264807224273,jumping
1783090659344354800,2.594354736328125,2.4593565616339443,-0.2495569446265697,15.783253051054476,0.035717312246561,-1.980880618095398,0.1903242468833923,jumping
1783090659354398700,2.604398681640625,2.9938951077505944,-0.5792600236356258,17.425049951499698,-0.2353661060333252,-2.3071250915527344,0.1962002515792846,jumping
1783090659364444000,2.61444384765625,2.9749396473899483,-1.6230714494481682,16.504786871683596,-0.4766362011432647,-2.5434980392456055,0.129750907421112,jumping
1783090659374487800,2.62448779296875,2.9566175164967774,-2.720327757461369,14.15533737644553,-0.5925878286361694,-2.5725650787353516,0.0017298274906352,jumping
1783090659384533000,2.634532958984375,2.8345342746168374,-3.4742645490452646,11.774119116503,-0.5365195870399475,-2.298401117324829,-0.1592001020908355,jumping
1783090659394577000,2.644576904296875,2.896149019269645,-3.499885312514007,9.680932201009988,-0.3633038699626922,-1.811326026916504,-0.267433613538742,jumping
1783090659404621800,2.654621826171875,2.9967423138752576,-3.3842218745484947,8.384198445791005,-0.1408804357051849,-1.1711704730987549,-0.3214590847492218,jumping
1783090659414665700,2.664665771484375,2.924551522411406,-3.475406997078657,7.66136932465434,0.083087146282196,-0.4492766857147217,-0.3659913837909698,jumping
1783090659424710700,2.674710693359375,2.647123405040801,-3.555626196697354,7.2614628286063665,0.2761604785919189,0.3064320981502533,-0.4055437445640564,jumping
1783090659434754800,2.6847548828125,2.725997035269439,-3.659659987145662,7.249792849078774,0.4100764691829681,0.9739862084388732,-0.4594399929046631,jumping
1783090659444800000,2.694800048828125,2.661520471444726,-3.5748663192182777,7.211614801853894,0.4778191447257995,1.509495735168457,-0.5234825015068054,jumping
1783090659454843600,2.70484375,2.255124613377452,-3.5293458002761,7.025074577632546,0.4070014357566833,1.9568524360656736,-0.5703831315040588,jumping
1783090659464888800,2.714888916015625,1.9226582071349023,-3.680540278089046,6.986836909174919,0.2022094279527664,2.291930913925171,-0.6039212346076965,jumping
1783090659474933000,2.72493310546875,1.588277345573157,-4.080302104969323,7.056645773938298,-0.0726655423641204,2.4929678440093994,-0.6455158591270447,jumping
1783090659484977700,2.734977783203125,1.121538224093616,-4.399362793932855,7.711504351654648,-0.3093315362930298,2.4524121284484863,-0.6635573506355286,jumping
1783090659495021800,2.745021728515625,0.9009092677876352,-4.5773359730780125,8.745420114135742,-0.4665043950080871,2.1118454933166504,-0.6356788277626038,jumping
1783090659505066800,2.755066650390625,0.9157339119538664,-4.686246429651975,9.377152667808533,-0.4991837739944458,1.4897202253341677,-0.5689433217048645,jumping
1783090659515110700,2.765110595703125,0.8585428289622068,-4.515471345317364,9.45548853789866,-0.2915999591350555,0.8274831771850586,-0.51600581407547,jumping
1783090659525155800,2.77515576171875,0.8834237338490784,-4.071632768562436,9.41848421062827,0.0699034631252288,0.2201604694128036,-0.4700602293014526,jumping
1783090659535200000,2.785199951171875,1.555240460629016,-3.5982217681035396,9.262859349152444,0.4194417595863342,-0.3097968697547912,-0.4087182879447937,jumping
1783090659545243600,2.79524365234375,2.5425658829793334,-2.730120837201178,8.700484409344195,0.6206477284431458,-0.6903945207595825,-0.3011431396007538,jumping
1783090659555288800,2.805288818359375,3.1091768529221415,-1.3963444685280322,8.356563419890403,0.6246339678764343,-0.9167062044143676,-0.1336108893156051,jumping
1783090659565333000,2.8153330078125,3.175991504305601,-0.2757978858202696,8.57837252589166,0.4500452578067779,-1.0371694564819336,0.0898054614663124,jumping
1783090659575377700,2.825377685546875,2.9672143138349054,0.4177393821194767,9.169961869746446,0.2008106708526611,-1.1861064434051514,0.3774966299533844,jumping
1783090659585421800,2.835421875,1.022654071493447,0.9461927631035446,8.8663121004045,-0.0055888928472995,-1.3092257976531982,0.7332857251167297,jumping
1783090659595466800,2.845466796875,-0.4044007387273013,0.9354302538096904,7.869370270055532,-0.1436327695846557,-1.4456946849822998,1.0174386501312256,jumping
1783090659605510700,2.8555107421875,-0.767321173813939,0.8383581190675496,5.788692123001813,-0.1634570658206939,-1.488776445388794,1.1473630666732788,jumping
1783090659615555800,2.865555908203125,0.3983040292873978,2.5101716798529026,2.939630141338706,-0.0790244713425636,-1.378479242324829,1.2803608179092407,jumping
1783090659625599700,2.875599853515625,4.188189940497279,4.526287630625069,0.860034528824687,0.1541656255722046,-1.216888427734375,1.478484034538269,jumping
1783090659635645000,2.88564501953125,3.300375716604292,5.276338812947273,-3.105751262387633,0.3303286731243133,-0.7016668319702148,1.6631531715393066,jumping
1783090659645688800,2.895688720703125,-1.6439337663434446,4.631420906747877,-8.423180210614204,0.2411137074232101,0.5139305591583252,1.818130373954773,jumping
1783090659655733800,2.905733642578125,-2.219792749363929,2.6891528669968245,-11.144238328176735,0.0476060360670089,1.8794234991073608,1.720036864280701,jumping
1783090659665778000,2.91577783203125,-2.615174315333366,2.3555691471621394,-15.50775151783228,-0.254814863204956,3.344914197921753,1.5287545919418335,jumping
1783090659675822800,2.92582275390625,-1.2796882201328872,2.207551838080585,-18.28469928039908,-0.6997739672660828,4.670261383056641,1.4462237358093262,jumping
1783090659685866800,2.93586669921875,1.3695043923974035,-0.7206073534339666,-15.226583629411458,-0.9893067479133606,4.9890055656433105,1.2094095945358276,jumping
1783090659695912000,2.945911865234375,0.7755935467924923,-3.2762273637756705,-12.162010180586575,-0.8028544187545776,4.308986186981201,0.808270275592804,jumping
1783090659705955800,2.955955810546875,-0.5377953194228932,-3.92949341160357,-10.395663355886937,-0.1659184098243713,3.3320274353027344,0.4374488890171051,jumping
1783090659716000800,2.966000732421875,-1.759270456572622,-3.2514819218367337,-8.7971789429456,0.4547536373138428,2.4230425357818604,0.0889777317643165,jumping
1783090659726045000,2.976044921875,-1.8643891196481883,-2.7179043297067285,-6.951126128846407,0.6502714157104492,1.556966781616211,-0.290570467710495,jumping
1783090659736089600,2.986089599609375,-1.8875388168282805,-2.608050162541866,-7.766532995915412,0.361423909664154,0.7574173808097839,-0.6408498883247375,jumping
1783090659746133800,2.9961337890625,-1.8859522782891989,-3.354719885732233,-11.002766495215893,0.008937812410295,0.0493412986397743,-0.9803004264831544,jumping
1783090659756179000,3.006178955078125,-1.1298834431126714,-3.097201168446243,-13.607466178286074,-0.1401869505643844,-0.5592168569564819,-1.1733989715576172,jumping
1783090659766222600,3.01622265625,-0.1076809330453164,-1.2616872840180993,-15.879457170790433,-0.1190143749117851,-0.9186761379241944,-1.1065062284469604,jumping
1783090659776267800,3.026267822265625,1.163116435150802,0.8987281243562698,-17.770456795597074,-0.0411022640764713,-0.8342038989067078,-0.8559536933898926,jumping
1783090659786312000,3.03631201171875,1.961182583579421,2.3039392054289576,-18.293360725760454,-0.0863596722483635,-0.4394252896308899,-0.5829603672027588,jumping
1783090659796356900,3.04635693359375,1.5266329364344478,3.129921827048063,-17.001576701903343,-0.3146500885486603,-0.1060958057641983,-0.3562504947185516,jumping
1783090659806400800,3.05640087890625,1.138123082865402,3.4792926063403486,-15.739152043521404,-0.6155543923377991,0.1045522093772888,-0.1334977746009826,jumping
1783090659816446000,3.066446044921875,1.36130954163447,3.1227514970272776,-14.9813334420681,-0.7773904204368591,0.0041398499161005,0.0225834436714649,jumping
1783090659826489900,3.07648974609375,0.8449600015506148,2.911015456750989,-15.825609845268726,-0.6320338845252991,-0.4633229672908783,0.0713730379939079,jumping
1783090659836535600,3.08653564453125,0.5555268274791538,2.8600024778723716,-16.853898415517808,-0.2495360374450683,-1.08711838722229,0.0467374585568904,jumping
1783090659846579500,3.096579345703125,0.92721567543298,3.2945898266792297,-16.399806740295887,0.1639230549335479,-1.5998691320419312,-0.0320395268499851,jumping
1783090659856623400,3.106623291015625,1.1066497209109365,3.9857559815734622,-14.080778102284668,0.3802931904792785,-1.8602272272109983,-0.1487919837236404,jumping
1783090659866668500,3.11666845703125,0.8454854136642068,4.636033368979394,-9.859380888712405,0.3300401568412781,-2.057321310043335,-0.1960182189941406,jumping
1783090659876712400,3.12671240234375,0.5826674209263175,4.502644889231026,-5.076202025049924,0.1620666086673736,-2.3195602893829346,-0.2273742705583572,jumping
1783090659886757400,3.13675732421875,0.357037149201706,4.413447433386743,-0.9282803820550442,0.0389664471149444,-2.5376081466674805,-0.2022397816181183,jumping
1783090659896801500,3.146801513671875,0.6613765813082456,3.725576812906563,2.4154636438935992,-0.1238352507352829,-2.671579599380493,-0.1343092024326324,jumping
1783090659906846500,3.156846435546875,1.3064110996246336,2.4490426728904247,4.73359153367281,-0.3175286054611206,-2.6347641944885254,-0.0569308847188949,jumping
1783090659916890400,3.166890380859375,1.5069184744000437,0.8269514666512608,5.7767497562736265,-0.5031512379646301,-2.37454891204834,-0.0043009617365896,jumping
1783090659926935600,3.176935546875,1.0416980869203805,-1.1001488145843148,7.075698849454522,-0.6301550269126892,-2.0182313919067383,-0.0617793947458267,jumping
1783090659936979500,3.1869794921875,0.199665663254261,-2.525712655594945,8.659105520251392,-0.6727117896080017,-1.6333942413330078,-0.2198928594589233,jumping
1783090659947024600,3.197024658203125,-1.0616871281124651,-3.0760011440292,10.361548320317269,-0.6514430046081543,-1.2521878480911257,-0.396365225315094,jumping
1783090659957068500,3.207068603515625,-1.6633178273797034,-2.9387577424183484,12.109790164005757,-0.6393316984176636,-0.9134029150009156,-0.5010871291160583,jumping
1783090659967113500,3.217113525390625,-0.3980862948834895,-2.6476582425698636,13.784326135492323,-0.5456966161727905,-0.8062728643417358,-0.5026863813400269,jumping
1783090659977157600,3.22715771484375,1.440590437489748,-2.372220129972696,14.115529097670317,-0.3727054595947265,-0.924249827861786,-0.450508177280426,jumping
1783090659987202300,3.237202392578125,2.792152638222277,-2.6084435457736252,12.954634722483158,-0.2417117059230804,-0.9267767667770386,-0.3859832882881164,jumping
1783090659997246500,3.24724658203125,3.4818054659441113,-3.178540312005579,11.684216142737863,-0.1980505138635635,-0.7448937892913818,-0.3020953238010406,jumping
1783090660007291600,3.257291748046875,3.0331589043855667,-3.748341602422297,10.662428624945878,-0.1550942212343216,-0.4638085663318634,-0.2436153441667556,jumping
1783090660017335300,3.267335205078125,2.196982221010327,-3.9109479933485383,9.466993097731471,-0.045404203236103,-0.0851387456059455,-0.2098917365074157,jumping
1783090660027380500,3.27738037109375,2.180283599665761,-3.4508664300620553,8.335374501389264,0.1405602544546127,0.3857017159461975,-0.1319700628519058,jumping
1783090660037424600,3.287424560546875,2.2939368668526408,-2.6409856329381465,7.403167301279306,0.3552930653095245,0.8692052364349365,-0.0030573490075767,jumping
1783090660047469300,3.29746923828125,1.96734841273278,-1.98327546518296,6.167609022513032,0.4107445180416107,1.4349976778030396,0.140060007572174,jumping
1783090660057513500,3.307513427734375,1.9946441236764192,-2.0349951310262084,5.035421101850271,0.2562622725963592,2.060734272003174,0.297196626663208,jumping
1783090660067558400,3.317558349609375,2.125160116728395,-2.819870666231215,4.665110118120908,-0.0035612750798463,2.5691604614257812,0.419570118188858,jumping
1783090660077602300,3.327602294921875,1.8208531986519696,-4.057687829840183,5.169436189064383,-0.2244430631399154,2.746246814727783,0.4606075584888458,jumping
1783090660087647500,3.3376474609375,1.561362889032066,-4.40133935470283,5.7984144755929705,-0.2722449898719787,2.7333426475524902,0.4268994033336639,jumping
1783090660097691600,3.347691650390625,1.4984832390099765,-4.920611650365591,6.795134187623858,-0.3370905518531799,2.4759392738342285,0.3762955963611603,jumping
1783090660107736600,3.357736572265625,1.011969011349976,-5.676456905919313,8.152312182411551,-0.3872760236263275,2.06296968460083,0.3226386904716491,jumping
1783090660117780500,3.367780517578125,0.7696049739021807,-5.213395157778263,9.069292587295172,-0.2591124773025512,1.6371675729751587,0.1711863428354263,jumping
1783090660127824600,3.37782470703125,0.1194252747170627,-4.686744734562933,9.52931891326308,-0.1383453756570816,1.3189754486083984,-0.0283832512795925,jumping
1783090660137869600,3.38786962890625,-0.1803548135846853,-3.7620457181259983,10.304129566049577,-0.1187679469585418,1.0740429162979126,-0.179631620645523,jumping
1783090660147913500,3.39791357421875,0.4023314581725746,-2.7619997842818496,10.766112286782263,-0.2209941446781158,0.8070690631866455,-0.1731618791818618,jumping
1783090660157958400,3.40795849609375,1.472407132989168,-2.233995608370006,10.910530110067128,-0.2868770062923431,0.4799388647079468,-0.0865172669291496,jumping
1783090660168002300,3.418002197265625,1.9977303992539643,-2.0920123187556863,10.363992790859935,-0.2268516272306442,0.1964703351259231,-0.0106495497748255,jumping
1783090660178047500,3.428047607421875,2.462240884898603,-2.540219027592242,9.741780345204472,-0.1323435008525848,0.0319461040198802,0.0284318067133426,jumping
1783090660188091400,3.43809130859375,3.2648899772033095,-3.2383298870578408,9.504745028498768,-0.1007238179445266,-0.1251104027032852,0.0512099601328372,jumping
1783090660198136600,3.448136474609375,3.6275282343477007,-3.917312267683446,9.140845080855488,-0.1139022037386894,-0.3848642110824585,0.0403045825660228,jumping
1783090660208180500,3.458180419921875,2.636275847811997,-4.272836893430352,8.257922428396343,-0.0903128683567047,-0.7166628241539001,-0.0562766641378402,jumping
1783090660218225400,3.468225341796875,2.194783834183216,-3.983180578127503,7.084549095386266,-0.0617888160049915,-1.2001619338989258,-0.2398078739643097,jumping
1783090660228269600,3.47826953125,2.5076041674524543,-3.2278920796737074,6.40896278693974,0.0463397018611431,-1.741024613380432,-0.4017291367053985,jumping
1783090660238314500,3.488314453125,1.185538256447762,-2.5502660820931196,6.58490796738863,0.2462821006774902,-2.274553060531616,-0.6507123708724976,jumping
1783090660248358400,3.4983583984375,-0.0295205473862588,-1.546069458310306,5.178278251689672,0.4255654811859131,-2.5132219791412354,-0.8553709387779236,jumping
1783090660258403600,3.508403564453125,-0.703970691409707,-0.7682049709111451,4.6405654594510795,0.5181769132614136,-2.4544668197631836,-0.9719327092170716,jumping
1783090660268447500,3.518447509765625,0.4393149618506431,0.6272109845951199,4.339987937161326,0.5287083983421326,-2.4745688438415527,-0.9337271451950072,jumping
1783090660278492400,3.528492431640625,0.5641776053160429,1.230016426730156,1.8778572346389293,0.5758116841316223,-2.353297472000122,-0.950409770011902,jumping
1783090660288536600,3.53853662109375,-1.5755045193701982,0.4105646681845188,-1.917414753523469,0.6450210213661194,-2.076730966567993,-1.1221758127212524,jumping
1783090660298581500,3.54858154296875,-4.45627301415652,1.0422682880237697,-6.921657457777857,0.6816078424453735,-1.5819203853607178,-1.1498172283172607,jumping
1783090660308625400,3.55862548828125,-7.452237913918495,3.0865529331818222,-15.281950711846353,0.557044506072998,-0.1202456802129745,-0.7944657802581787,jumping
1783090660318670600,3.568670654296875,-9.625125558114052,3.9521386663928624,-26.857717001259324,-0.3990303575992584,3.2119805812835693,-0.3113563358783722,jumping
1783090660328714500,3.578714599609375,-7.074550848463177,4.634953172527253,-28.874651867198946,-1.6309542655944824,6.324375152587891,-0.2136303037405014,jumping
1783090660338759400,3.588759521484375,-2.1805277836851773,8.790394981893897,-21.37610345300436,-1.5157309770584106,7.303653717041016,-0.040719773620367,jumping
1783090660348803600,3.598803466796875,-0.5553955292496829,12.840468245077131,-16.113751079833506,-0.2795684039592743,7.06536340713501,0.4340565800666809,jumping
1783090660358848500,3.6088486328125,-1.54973616412431,12.867204276311396,-11.528210757511854,0.9056339263916016,6.266442775726318,0.7153380513191223,jumping
1783090660368892400,3.618892333984375,-1.7941401099018752,8.089620456176995,-9.17228709782362,0.9846335649490356,5.316280841827393,0.5830639600753784,jumping
1783090660378936600,3.6289365234375,-0.1287847122799605,2.3205752829313275,-6.581496697640419,0.3825405538082123,3.86771011352539,0.1014406085014343,jumping
1783090660388981500,3.6389814453125,0.9820069307412952,0.5374897971376776,-6.067800156283378,-0.0309385433793067,1.7554571628570557,-0.4626243412494659,jumping
1783090660399025400,3.649025390625,0.2327346969023346,1.4435364278137683,-9.612211716005206,0.0711702480912208,-0.3451787829399109,-0.9722135663032532,jumping
1783090660409070600,3.659070556640625,-1.359917648884654,2.7202777808398007,-13.826886343324183,0.3499636948108673,-1.9067147970199585,-1.3762977123260498,jumping
1783090660419114500,3.669114501953125,-2.1531132686674592,3.7161245094284414,-16.066975300133226,0.5333982110023499,-2.8761026859283447,-1.6635923385620115,jumping
1783090660429159400,3.679159423828125,-2.116177184327692,4.198111907313764,-16.65548713623881,0.4965666830539703,-3.2329213619232178,-1.8448081016540527,jumping
1783090660439203600,3.68920361328125,-1.2338659417651594,4.5507431497067214,-15.22314780974388,0.4194617569446563,-3.2124338150024414,-1.912484645843506,jumping
1783090660449248500,3.69924853515625,-0.5208089306455105,4.615342463128268,-12.872619287097454,0.3728194832801819,-3.1216609477996826,-1.8346258401870728,jumping
1783090660459292400,3.70929248046875,-0.4293466716744005,4.170590570920705,-11.242913806462289,0.3374606966972351,-2.829826593399048,-1.6294686794281006,jumping
1783090660469337300,3.71933740234375,-0.3208672999940812,3.912687822753191,-10.363546216136216,0.2900314927101135,-2.2510411739349365,-1.3162312507629397,jumping
1783090660479381500,3.729381591796875,-0.1115562949076294,3.940948871597647,-10.144530540245771,0.2436549365520477,-1.3538973331451416,-0.91037780046463,jumping
1783090660489426400,3.739426513671875,0.180333916927129,3.699063484512269,-9.631665189015864,0.1331598162651062,-0.246605634689331,-0.4582102596759796,jumping
1783090660499470600,3.749470703125,-0.1660648608170449,2.5549305667728186,-7.973418089029193,-0.1573066413402557,0.8092128038406372,-0.0594879277050495,jumping
1783090660509515500,3.759515625,-0.5218085361421108,0.553464780382812,-5.730287864828109,-0.547395646572113,1.5879000425338743,0.150987759232521,jumping
1783090660519559400,3.769559326171875,-1.6837801851719616,-1.609268841806054,-4.812734043970703,-0.7596660852432251,2.060420513153076,0.045127909630537,jumping
1783090660529604400,3.779604248046875,-2.6949384646609422,-1.5779896141842007,-3.1152976738899945,-0.6672253608703613,2.083486557006836,-0.0412585064768791,jumping
1783090660539648500,3.7896484375,-1.7983572892054915,-0.8019809837847948,0.3006248685628175,-0.2522817552089691,1.6244709491729736,0.0169605910778045,jumping
1783090660549693700,3.799693603515625,-1.2677603203214705,-0.6808806154623628,3.3351924707025287,0.3073249757289886,0.9535847902297974,0.0017311517149209,jumping
1783090660559737300,3.8097373046875,-1.2783482037007807,-0.3500277818962931,5.789751861187815,0.7955154180526733,0.5127312541007996,-0.0689893513917923,jumping
1783090660569782500,3.819782470703125,-0.6604977526471019,-0.6638146221101283,8.724745574897527,1.009220838546753,0.1655422896146774,-0.1277908980846405,jumping
1783090660579826700,3.82982666015625,0.4544939724124968,-0.8173343280002474,11.362152764827012,1.0285115242004397,-0.0725597590208053,-0.0904555171728134,jumping
1783090660589871400,3.839871337890625,1.2481661236658692,-0.7902686264201998,13.634752829140425,0.9063512086868286,-0.3015029728412628,-0.0192773416638374,jumping
1783090660599915500,3.84991552734375,1.5920748381599783,-0.5763751158490776,15.418696100807187,0.6920868754386902,-0.534715473651886,0.0619192421436309,jumping
1783090660609960400,3.85996044921875,1.7333303980216384,-0.167440094693005,16.651549796789883,0.4179762303829193,-0.7976366281509399,0.1900064051151275,jumping
1783090660620004400,3.87000439453125,1.410172210611403,-0.2377323590591549,16.694910799610614,0.082368403673172,-1.0715389251708984,0.341461181640625,jumping
1783090660630049500,3.880049560546875,0.6902001594062894,-1.3689157788544892,15.18933672555685,-0.2658835053443908,-1.2388898134231567,0.3844780623912811,jumping
1783090660640093400,3.890093505859375,-0.0236017517965286,-2.1176295750930905,13.445322144174575,-0.4918247759342193,-1.4001277685165403,0.3385521173477173,jumping
1783090660650137300,3.900137451171875,-0.0532248097091913,-2.197152316880226,11.98896715131998,-0.4109502732753753,-1.5706497430801392,0.2191772758960724,jumping
1783090660660182500,3.9101826171875,0.4280833737403154,-1.9704542697936296,10.716673425352573,-0.1052529364824295,-1.6484864950180054,0.0811786651611328,jumping
1783090660670226700,3.920226806640625,1.5357165527306496,-1.4596715700566767,9.88549966483116,0.2858995199203491,-1.5773422718048096,-0.0108996145427227,jumping
1783090660680271400,3.930271240234375,2.3508637459501625,-1.1671034589603542,9.08919906477034,0.634253740310669,-1.321474313735962,-0.0361482463777065,jumping
1783090660690315500,3.9403154296875,2.8155384822458025,-1.278743340498209,8.144765420293808,0.8092789053916931,-0.8507623672485352,-0.0257190465927124,jumping
1783090660700360400,3.9503603515625,3.1667513822734352,-1.111604859100282,7.407483995434641,0.7604663372039795,-0.325804591178894,-0.027830135077238,jumping
1783090660710404400,3.960404296875,3.0131922211557627,-1.2038958970457314,7.072864502811432,0.5486288666725159,0.1857859194278717,-0.0414974726736545,jumping
1783090660720449500,3.970449462890625,2.477982936170697,-1.7229986813604832,7.1910437229901545,0.2395754158496856,0.7231189012527466,-0.0431584864854812,jumping
1783090660730493400,3.980493408203125,2.3266820753738284,-2.4709008689552543,7.798679361760616,-0.1159301102161407,1.1486546993255615,-0.0226617455482482,jumping
1783090660740538600,3.99053857421875,2.3187083200156686,-2.989705254845321,8.227616137459874,-0.4163003265857696,1.4559195041656494,-0.0138991456478834,jumping
1783090660750872300,4.000872314453125,2.231972724240273,-3.09317848880142,8.526941613861919,-0.5952826738357544,1.6568182706832886,-0.0045817038044333,jumping
1783090660761253600,4.011253662109375,2.068611423293501,-3.15358590349108,8.53070418126583,-0.656220555305481,1.7453627586364746,0.0137845203280448,jumping
1783090660771298300,4.02129833984375,1.9335658239878712,-3.028961160434782,8.98537336411476,-0.6655486226081848,1.724501132965088,0.01883115619421,jumping
1783090660781342500,4.031342529296875,1.5310516296595331,-2.814045905600488,9.432985029667616,-0.6302071809768677,1.5354933738708496,0.0034468730445951,jumping
1783090660791387600,4.0413876953125,1.1761511271603404,-2.8111151128455996,9.90493618670702,-0.5971150994300842,1.0597286224365234,-0.0716252252459526,jumping
1783090660801431300,4.051431396484375,0.6491578087914734,-2.8525030620276928,10.040215594768524,-0.5552326440811157,0.4880174398422241,-0.2122515887022018,jumping
1783090660811475500,4.061475341796875,-0.2589485308934003,-2.8360134072586893,9.479130694770811,-0.4858110547065735,-0.0875504612922668,-0.3971593379974365,jumping
1783090660821520600,4.071520751953125,-1.0070410534285008,-2.785867566603422,9.371676282224058,-0.3232903182506561,-0.4764273762702942,-0.4855310320854187,jumping
1783090660831564500,4.081564453125,-1.1591323339506985,-1.9322724231764672,8.071790784975885,-0.0709303244948387,-0.8102198839187622,-0.4549137949943542,jumping
1783090660841609700,4.091609619140625,-0.1527615809991955,-0.3850613936156034,6.46800885014832,0.1921811997890472,-0.957722008228302,-0.4714672267436981,jumping
1783090660851653600,4.101653564453125,-0.7745867809027432,0.0506418074786663,4.453775059860945,0.2905916273593902,-1.3017163276672363,-0.5574964880943298,jumping
1783090660861698600,4.111698486328125,2.6950626755625007,0.4928200498059392,4.890519294440746,0.1932823807001114,-1.879893898963928,-0.3942402005195617,jumping
1783090660871742700,4.12174267578125,7.172822422122955,3.5678768987223504,5.636079887345433,0.0158766899257898,-1.4476443529129028,0.1127401515841484,jumping
1783090660881787600,4.13178759765625,2.524240537215769,5.644346195909381,-0.1995318077415227,-0.0096108270809054,-0.4692625701427459,0.6110497713088989,jumping
1783090660891831600,4.14183154296875,-0.2459982292316853,3.649971829085051,-3.063548197430372,-0.0582932345569133,0.4409442543983459,0.9203526377677916,jumping
1783090660901876700,4.151876708984375,-0.5388808131046593,1.4905132830440997,-3.977509546753764,-0.2616412937641144,1.2659223079681396,0.8640313148498535,jumping
1783090660911920600,4.161920654296875,-1.70593941000998,-1.1537062172487378,-6.604015403440594,-0.5347444415092468,1.8769346475601196,0.625085711479187,jumping
1783090660921965600,4.171965576171875,-2.18343709526062,-2.8864392338991163,-8.908277264952659,-0.689331591129303,2.638746738433838,0.4645511507987976,jumping
1783090660932009700,4.182009765625,-3.3275276351630687,-1.838824908672273,-14.03081200211048,-0.4570497572422027,3.400545358657837,0.3410735130310058,jumping
1783090660942054400,4.192054443359375,-2.8978002936080096,-0.5730974093526602,-18.05945260116458,0.0272953622043132,3.477524995803833,0.2581314742565155,jumping
1783090660952098600,4.2020986328125,-0.8913217936225235,2.0613801568657157,-16.651464456593988,0.4596377611160278,3.1933035850524902,0.2530193328857422,jumping
1783090660962143700,4.212143798828125,-0.8658603123687207,4.447819366326928,-15.11563319144249,0.7140287756919861,2.948030471801758,0.2949033975601196,jumping
1783090660972187400,4.2221875,-2.383993716005236,4.250364072598517,-14.469310971403122,0.7451561689376831,2.2364556789398193,0.3230972290039062,jumping
1783090660982232600,4.232232666015625,-2.502992874264717,2.922382069417834,-10.96589719250202,0.5028295516967773,0.9355424642562866,0.2763643264770508,jumping
1783090660992276700,4.24227685546875,-1.6250637923091649,1.7750331122413276,-7.459639714607596,0.1909283995628357,-0.281157374382019,0.256193995475769,jumping
1783090661002321700,4.25232177734375,-1.5930997972935437,1.9793480626061557,-8.051002848491072,0.0462974458932876,-1.1098731756210327,0.2153440117835998,jumping
1783090661012365600,4.262365478515625,-1.3907657916128635,2.469423782140016,-9.924530529493094,0.0151810264214873,-1.626667022705078,0.107350654900074,jumping
1783090661022409700,4.27240966796875,-0.9008926089137792,3.091981387971342,-11.758960125815868,0.0790971592068672,-1.848166346549988,-0.0307449009269475,jumping
1783090661032454400,4.282454345703125,-0.2071804958637803,4.135129381439089,-13.951707485735415,0.1467134356498718,-1.7138714790344238,-0.106131225824356,jumping
1783090661042498600,4.29249853515625,0.5275582222426309,5.5971840472400185,-16.5289930921793,0.1305890679359436,-1.3355833292007446,-0.0496719516813755,jumping
1783090661052543700,4.302543701171875,1.3797870092198252,6.857332577383517,-18.199879308986663,0.1478676348924636,-0.795341432094574,0.0905622541904449,jumping
1783090661062587400,4.31258740234375,1.4358556640528142,7.248299395650624,-18.713345548719168,0.2589222192764282,-0.2245373129844665,0.2326919734477996,jumping
1783090661072632600,4.322632568359375,0.7664280243664979,7.081198031392693,-17.52207006379366,0.3600791692733764,0.2922205924987793,0.3009590208530426,jumping
1783090661082676700,4.3326767578125,0.0087707121388404,5.990367372512817,-15.227342338824272,0.3252421021461487,0.8287271857261658,0.3077447414398193,jumping
1783090661092721700,4.3427216796875,-0.610600187664479,4.903350134441256,-13.713245935618875,0.1585400253534317,1.3366081714630127,0.3550724387168884,jumping
1783090661102765600,4.352765625,-0.6915664793234318,4.441160785220563,-12.14693536105156,-0.0247906576842069,1.5827960968017578,0.4424779117107391,jumping
1783090661113438700,4.363438720703125,-0.0396538553984835,3.8108179323405023,-9.434836795014142,-0.1021997407078743,1.355422019958496,0.4611238837242126,jumping
1783090661123482600,4.373482666015625,0.9638459086939692,2.7613383977636694,-6.613968642178177,-0.082671582698822,0.8224422335624695,0.4038528800010681,jumping
1783090661133526500,4.383526611328125,1.7774733450002966,2.460323653100431,-4.576303707420825,-0.1010510027408599,0.0995134711265564,0.3647317886352539,jumping
1783090661143571700,4.39357177734375,2.7413135546058416,2.6622221899732947,-2.812915732526779,-0.0918148905038833,-0.5586122274398804,0.3894792199134826,jumping
1783090661153615600,4.40361572265625,2.791404450203478,2.8236908090412616,-1.2436749497264623,0.0072536468505859,-0.9494040608406068,0.4094062745571136,jumping
1783090661163660500,4.41366064453125,2.16904879668504,3.063020374163985,1.4909312161952255,0.1128317341208458,-1.156364917755127,0.4710613787174225,jumping
1783090661173704700,4.42370458984375,1.2944403835847973,2.8678093522310255,5.233664038825035,0.1444537043571472,-1.1702088117599487,0.5042663216590881,jumping
1783090661183749600,4.43374951171875,-0.0965446768019348,1.448719967931509,8.814974711877108,0.0022635338827967,-1.1098262071609497,0.4207304418087005,jumping
1783090661193793500,4.44379345703125,-1.8058058516457676,-0.8281663953989744,11.884330718803405,-0.2902165055274963,-0.9562731981277466,0.2122023403644561,jumping
1783090661203838500,4.45383837890625,-3.1237852239891883,-2.860018552224338,14.431320555704833,-0.6314616799354553,-0.90746009349823,-0.0366471596062183,jumping
1783090661213882600,4.463882568359375,-2.919207823295891,-4.505846900142729,16.539907284903524,-0.8644552826881409,-0.9782971739768982,-0.2504850327968597,jumping
1783090661223927600,4.473927490234375,-1.3273854985922575,-4.933451258194446,16.921290282267332,-0.814389169216156,-1.0699416399002075,-0.3692755997180938,jumping
1783090661233971700,4.4839716796875,-0.2520382583145983,-3.767760004119575,14.970278964090346,-0.559188187122345,-0.8946143388748169,-0.4420481324195862,jumping
1783090661244016600,4.4940166015625,-0.9495586593400688,-2.822792398896813,11.833042430114745,-0.2670162618160248,-0.5508732199668884,-0.4802874028682709,jumping
1783090661254060500,4.504060546875,-1.104048890762776,-2.8480940134137867,10.480412015628811,-0.0089766886085271,-0.2185782939195633,-0.4626414179801941,jumping
1783090661264105500,4.51410546875,-0.5248346790302545,-2.630462777619064,10.385704271930456,0.2196445018053054,0.07707279920578,-0.4236359596252441,jumping
1783090661274149600,4.524149658203125,-0.1110136028656735,-2.325080485396087,10.209871904206276,0.3980148732662201,0.3521197438240051,-0.3616075217723846,jumping
1783090661284193500,4.534193603515625,-0.0011489873720332,-2.253494381827116,9.75300959522724,0.4759006202220917,0.508441150188446,-0.2719231843948364,jumping
1783090661294238500,4.544238525390625,0.2115756255501881,-2.4279066536203024,9.408063938900828,0.4515302777290344,0.5711280703544617,-0.2034386992454528,jumping
1783090661304282600,4.55428271484375,0.8293703643612563,-2.6936908026874065,8.525614749172329,0.3996447026729584,0.7283943891525269,-0.1167229861021041,jumping
1783090661314327800,4.564327880859375,1.4446087332203985,-2.366546468250453,6.933404594194888,0.3299939334392547,0.8587618470191956,-0.006595641374588,jumping
1783090661324371500,4.574371337890625,1.8483901710055768,-2.1516884965613485,6.027549394437671,0.2657377123832702,0.8811891078948975,0.1019801050424575,jumping
1783090661334416600,4.584416748046875,1.8481782818205656,-2.102572291214764,5.74224016842842,0.2273017615079879,0.794662356376648,0.1728454381227493,jumping
1783090661344460500,4.59446044921875,1.2949661610245704,-2.491580376629531,6.032493865102529,0.2272053509950637,0.607715904712677,0.1376248747110366,jumping
1783090661354505500,4.60450537109375,0.4658892631845548,-3.4388442760959266,7.1973407773077485,0.2051680535078048,0.3458590507507324,0.0163999330252408,jumping
1783090661364549600,4.614549560546875,-0.29221027410198,-4.307658615964651,8.97569601970911,0.1449478566646576,0.0380802005529403,-0.1000387966632843,jumping
1783090661374594800,4.6245947265625,-0.7332418671447783,-4.646247889001668,10.767157411921024,0.0657897070050239,-0.2762031555175781,-0.1968200355768203,jumping
1783090661384638500,4.634638427734375,-0.7426329419549554,-4.606357777161896,11.874855618971583,0.0480541139841079,-0.5229463577270508,-0.2661801874637604,jumping
1783090661394683600,4.64468359375,-0.4169480125460773,-4.256523472011089,12.01127016854286,0.0780898258090019,-0.6761223077774048,-0.2969736456871032,jumping
1783090661404727800,4.654727783203125,0.0422594165206886,-3.694682492949069,11.550735893052815,0.0741195827722549,-0.7335768342018127,-0.2782436311244964,jumping
1783090661414772500,4.6647724609375,0.5058784149520099,-3.176608467160165,10.906678110814092,-0.0248379260301589,-0.7691863179206848,-0.2315053790807724,jumping
1783090661424816600,4.674816650390625,0.9679603582754732,-2.7453774430438873,10.348801066946985,-0.1166986003518104,-0.8276227712631226,-0.2112027704715728,jumping
1783090661434861600,4.684861572265625,1.4014242560103536,-2.4429721208050847,9.946479326450824,-0.1522010564804077,-0.8993910551071167,-0.1976916491985321,jumping
1783090661444905500,4.694905517578125,1.4603333949662745,-2.0949472031638026,9.548508766901492,-0.125785693526268,-0.9471588730812072,-0.1096837669610977,jumping
1783090661454950700,4.70495068359375,0.5671549406263977,-1.4661328750252722,9.053812694090604,-0.0079248649999499,-1.0035566091537476,-0.0363707914948463,jumping
1783090661464994600,4.71499462890625,0.0860366537258029,-0.9546960952937602,8.775159418839216,0.1776508539915084,-1.077967405319214,0.0797960311174392,jumping
1783090661475039700,4.725039794921875,0.462524791720137,-0.1326946522653102,8.615779588744044,0.3671785593032837,-1.217690348625183,0.2974114418029785,jumping
1783090661485083600,4.735083740234375,1.3108642796412109,0.9414034830003976,8.142137994399667,0.4210553765296936,-1.3727720975875854,0.5387266278266907,jumping
1783090661495127600,4.74512744140625,2.4532296031862497,1.5633233754500746,6.868039849358797,0.311816930770874,-1.469552993774414,0.7290602922439575,jumping
1783090661505172500,4.75517236328125,3.3942613302648064,2.28929459400475,4.88128092597425,0.0395681001245975,-1.3465481996536257,1.1132105588912964,jumping
1783090661515216600,4.765216552734375,2.234732690472901,4.419862853386998,1.389500301721692,-0.2740657329559326,-0.9910590052604676,1.687736988067627,jumping
1783090661525261600,4.775261474609375,0.4932535458523779,6.083062022823095,-2.3604116187572477,-0.4763490557670593,-0.4809760451316833,2.05759334564209,jumping
1783090661535305500,4.785305419921875,-1.189802708959207,6.022861528882384,-6.349539122590422,-0.5860699415206909,0.3816758990287781,2.1310267448425293,jumping
1783090661545350700,4.7953505859375,-3.694928868925571,5.054135154670477,-12.456233949935436,-0.5607240796089172,1.4660266637802124,1.981635570526123,jumping
1783090661555394600,4.80539453125,-4.447428613443672,3.2389550332188604,-18.256420111376045,-0.4073667526245117,1.9116190671920776,1.8716516494750977,jumping
1783090661565439700,4.815439697265625,0.2362194702781736,1.8445441631019115,-18.35293987293243,-0.1279654800891876,1.843299150466919,1.7766510248184204,jumping
1783090661575483600,4.825483642578125,1.8646594610221685,2.508857966905832,-17.734813819807766,0.190356433391571,1.9688206911087036,1.47078275680542,jumping
1783090661585528600,4.835528564453125,-1.0994416161630305,0.6248027544096112,-18.550201982176304,0.5321755409240723,2.1415514945983887,1.1928997039794922,jumping
1783090661595572700,4.84557275390625,-2.9457056618601083,0.3730827865302562,-15.974779831516742,0.5875402688980103,2.1460726261138916,0.8029664158821106,jumping
1783090661605617400,4.855617431640625,-5.448008800294995,1.2911881037905812,-13.920126937079427,0.5337819457054138,1.972379207611084,0.1679737418889999,jumping
1783090661615661600,4.86566162109375,-6.070885847339034,-0.0791714441314339,-14.423475102901458,0.3405669927597046,1.2229739427566528,-0.3133954107761383,jumping
1783090661625706800,4.875706787109375,-3.0718136292114853,1.3892632780954242,-13.847716365385054,0.0281912311911582,0.3671394288539886,-0.4843594431877136,jumping
1783090661635750700,4.885750732421875,-1.2346788655832408,2.8756439913794396,-15.96911113823056,-0.3076380789279938,-0.0492141544818878,-0.6231232285499573,jumping
1783090661645795600,4.895795654296875,-1.0218392479792238,1.7983350773736833,-19.459757790017125,-0.4320607185363769,-0.3171584904193878,-0.665131688117981,jumping
1783090661655839700,4.90583984375,-1.0067677894450724,2.475912559637427,-21.03669029636383,-0.1317299753427505,-0.7732341885566711,-0.4347825646400451,jumping
1783090661665884400,4.915884521484375,0.364680795822665,5.82497222765088,-20.074932007598875,0.1836623400449752,-1.1835851669311523,-0.0564125999808311,jumping
1783090661675928600,4.925928466796875,1.1928884000148623,8.26936152177751,-17.772659274077416,0.0606042705476284,-1.3863091468811035,0.3284122347831726,jumping
1783090661685973800,4.935973876953125,0.6694799543954432,8.261646417355538,-15.58483125038147,-0.2631013691425323,-1.3124581575393677,0.5587466955184937,jumping
1783090661696017400,4.946017333984375,-0.1954266191787086,6.423111723801493,-14.3109710057497,-0.5486303567886353,-0.9928345084190368,0.6059066653251648,jumping
1783090661706061600,4.9560615234375,-0.8663181391388177,4.609787751610577,-13.936730865877866,-0.6586282253265381,-0.704481303691864,0.5336945056915283,jumping
1783090661716106800,4.966106689453125,-0.4046246836762875,3.132079881864786,-12.983489061045644,-0.5486023426055908,-0.4533442854881286,0.4414773285388946,jumping
1783090661726150400,4.976150390625,0.5989826689764857,2.333859127396345,-11.25342584812641,-0.3826298415660858,-0.2868636846542358,0.3757635653018951,jumping
1783090661736195600,4.986195556640625,1.687270657636225,2.4785624896243212,-8.410228374582529,-0.3052178621292114,-0.2614913284778595,0.3818245530128479,jumping
1783090661746239700,4.99623974609375,2.1378233450770376,3.118616004657745,-4.902551677539944,-0.3396634757518768,-0.4290313422679901,0.4323106408119201,jumping
1783090661756284700,5.00628466796875,2.53949422044903,3.2263349133595822,-1.0991279471039772,-0.3919908106327057,-0.7062568664550781,0.5514919757843018,jumping
1783090661766328600,5.01632861328125,2.705708280478418,3.1205674309864637,2.1975895392537117,-0.4481680691242218,-1.116141438484192,0.6626201272010803,jumping
1783090661776373500,5.02637353515625,2.6957161710351705,1.7884005433365702,5.124975700569153,-0.3987092673778534,-1.435084104537964,0.648003339767456,jumping
1783090661786417700,5.036417724609375,2.1357874553352594,-0.0458010894492268,7.380244690853357,-0.2871742248535156,-1.637476682662964,0.5571141839027405,jumping
1783090661796462600,5.046462646484375,0.8079821238957345,-1.4768565136134624,8.920372191894053,-0.165492907166481,-1.565036654472351,0.4411356747150421,jumping
1783090661806506800,5.0565068359375,-0.61984637411125,-2.67431536334902,9.807565361279249,-0.1058327853679657,-1.4733670949935913,0.3342547714710235,jumping
1783090661816551700,5.0665517578125,-1.4347016717121004,-3.3864135393738746,11.274113246846198,0.0314451865851879,-1.337992548942566,0.2162471711635589,jumping
1783090661826595600,5.076595703125,-1.6924737792372702,-3.6661101861983534,12.530765167045592,0.1870528906583786,-1.2383666038513184,0.0856015533208847,jumping
1783090661836640500,5.086640625,-1.2756404060468076,-3.658406772214174,13.964406808310748,0.280285894870758,-1.1609565019607544,-0.011691614985466,jumping
1783090661846684200,5.09668408203125,0.3461998941712081,-3.5959622987389563,14.389049101686476,0.2688609361648559,-1.0102354288101196,-0.0443659387528896,jumping
1783090661856729300,5.106729248046875,1.8332520769760012,-3.155529146513343,14.266822067421671,0.1274658590555191,-0.7500974535942078,-0.0513258576393127,jumping
1783090661866773200,5.116773193359375,2.2885521050743756,-3.016865064449608,14.133862042218446,-0.0657832324504852,-0.4206300377845764,-0.0700353607535362,jumping
1783090661876818200,5.126818115234375,2.1362726085036994,-3.2754099099129435,13.448441152977942,-0.0970976129174232,-0.0142330322414636,-0.1082172840833664,jumping
1783090661886862300,5.1368623046875,1.8474904456868768,-3.085322514604032,11.907557280611991,0.0170119106769561,0.4393656253814697,-0.1231517642736435,jumping
1783090661896907000,5.146906982421875,1.4861810990586877,-2.1214465030327436,9.839228912043572,0.1401200294494629,1.002570390701294,-0.0974790304899215,jumping
1783090661906951200,5.156951171875,0.8352436403088271,-1.3096663020282984,7.787676906231045,0.1625092029571533,1.6448575258255005,-0.0725153535604476,jumping
1783090661916995300,5.166995361328125,0.214377640826255,-1.3367194363877175,5.9875716043144465,0.1187291070818901,2.184114933013916,-0.1027029976248741,jumping
1783090661927040000,5.1770400390625,0.0611542875342071,-1.7994798634946343,4.947327807855606,0.0677181184291839,2.4564030170440674,-0.2217859923839569,jumping
1783090661937084200,5.187084228515625,0.1819863968418911,-2.838943907752633,4.432573281878232,0.0781288295984268,2.4662795066833496,-0.3714633285999298,jumping
1783090661947129300,5.19712939453125,-0.1668080986660905,-3.6437937249720096,4.4249692366153,0.1297768503427505,2.2198214530944824,-0.5587994456291199,jumping
1783090661957173000,5.207173095703125,-0.3719095414998009,-4.5469171616777775,5.037255331540107,0.2760023176670074,1.9070823192596436,-0.7310387492179871,jumping
1783090661967218200,5.21721826171875,-0.7398406808879227,-5.292943910789489,6.019015374848246,0.4191376268863678,1.4695249795913696,-0.9099408388137816,jumping
1783090661977262300,5.227262451171875,-0.9899415231328456,-5.711516528862714,7.996953862917422,0.4406912922859192,0.9162341356277466,-1.0824888944625854,jumping
1783090661987307000,5.23730712890625,-1.0336270817328244,-6.208502758437395,9.451187625834343,0.4058672487735748,0.4197327494621277,-1.2476669549942017,jumping
1783090661997351200,5.24735107421875,-1.0978023975886404,-6.304288360500335,10.042429763686656,0.3678648769855499,0.0509577989578247,-1.3618135452270508,jumping
1783090662007396000,5.25739599609375,-0.943831002408266,-5.528560008347034,10.4206481595397,0.3596780598163605,-0.2131633311510086,-1.3617557287216189,jumping
1783090662017440000,5.26743994140625,-0.555559779900685,-4.122974541004002,10.643270335489513,0.3193958401679992,-0.4549591839313507,-1.2243261337280271,jumping
1783090662027485200,5.277485107421875,0.0287684366775909,-2.601717160128057,10.606004726934431,0.2065488994121551,-0.6702757477760315,-0.9962807297706604,jumping
1783090662037529300,5.287529296875,0.6803766114629805,-1.3424807763934137,10.34528224517107,0.046795580536127,-0.7941707372665405,-0.7374309301376343,jumping
1783090662047574300,5.29757421875,1.2068605920702218,-0.5834118826180696,10.06077206058502,-0.0563049726188182,-0.874150276184082,-0.4959591627120971,jumping
1783090662057618200,5.3076181640625,1.5351286698400974,-0.1494552329301834,9.941811334639787,-0.0505735129117965,-0.9428504705429076,-0.2857921421527862,jumping
1783090662067663000,5.3176630859375,1.3392486626043916,-0.0685726009666919,9.558287818115948,0.0020018143113702,-0.8879938721656799,-0.0790757089853286,jumping
1783090662077707300,5.327707275390625,0.3190291613141074,-0.0639557548210024,9.02845788808167,0.0186423026025295,-0.8292052745819092,0.0960003957152366,jumping
1783090662087752200,5.337752197265625,-0.6158991708554327,-0.0626435031786561,9.171852798059582,-0.0776807740330696,-0.8817574381828308,0.2745379209518432,jumping
1783090662097796000,5.347796142578125,-1.1475339583545925,0.5392474544599652,8.715462782767414,-0.2305782586336136,-1.1015346050262451,0.4485151767730713,jumping
1783090662107840300,5.35784033203125,-0.2399124795772135,1.614958577880263,7.337948102393746,-0.3896336853504181,-1.40608811378479,0.6609529256820679,jumping
1783090662117885200,5.36788525390625,0.986222575674951,3.182339412027597,4.6796536072582,-0.5605118870735168,-1.6125433444976809,1.017793893814087,jumping
1783090662127929000,5.37792919921875,2.0185222812615335,4.683377011695504,1.8094985686838625,-0.5696055293083191,-1.8654943704605105,1.1900293827056885,jumping
1783090662137974300,5.387974365234375,4.815352994297444,5.131703547519445,0.2075356659770011,-0.5030847191810608,-1.7914328575134275,1.488556742668152,jumping
1783090662148018200,5.39801806640625,2.732577582703531,6.293305194193125,-3.702929220029711,-0.4732301831245422,-1.3378312587738037,1.7935903072357178,jumping
1783090662158063000,5.40806298828125,-0.232001121930778,5.427881958067417,-6.418451330775022,-0.3739909827709198,-0.6087400913238525,1.8170877695083616,jumping
1783090662168107300,5.418107177734375,-2.300171961849928,3.5952731474310156,-9.687581137505171,-0.4102294147014618,0.2584299445152282,1.650461196899414,jumping
1783090662178152200,5.428152099609375,-2.7616844347223637,2.4642870037734506,-13.665064965295793,-0.3795725107192993,0.3597475886344909,1.4675403833389282,jumping
1783090662188196000,5.438196044921875,1.1475237292215228,2.0559587163388726,-13.95267077780962,-0.228479653596878,0.3743132054805755,1.2621192932128906,jumping
1783090662198241300,5.4482412109375,0.7512205914277583,0.1962549780279397,-17.009139246112106,0.0255370065569877,0.4291580021381378,0.7277387976646423,jumping
1783090662208285200,5.45828515625,-1.944200176857412,-4.854804130198061,-17.81017622704506,0.4233594536781311,0.1569605469703674,0.1388480514287948,jumping
1783090662218330000,5.468330078125,-2.5879522541478273,-5.577950354459881,-14.451961192673444,0.6902867555618286,-0.3191186189651489,-0.2873491048812866,jumping
1783090662228374300,5.478374267578125,-2.4227871186494827,-3.1602088287621735,-11.353441050583124,0.705191433429718,-0.5414885878562927,-0.6541542410850525,jumping
1783090662238419200,5.488419189453125,-3.4937644915461536,-1.6533634195983409,-10.7333346372962,0.4084556102752685,-0.4159811735153198,-0.8823185563087463,jumping
1783090662248463000,5.498463134765625,-4.260333677949011,-0.3677981241255998,-11.556465376615524,-0.0337582677602767,-0.164704754948616,-0.9463894367218018,jumping
1783090662258508300,5.50850830078125,-4.616082760101556,0.7038575864240527,-13.03461835978031,-0.2810873091220855,0.0888864919543266,-0.9789876937866212,jumping
1783090662268552200,5.51855224609375,-4.139245584586263,0.5364873420968651,-15.222302591091394,-0.1297215074300766,0.0213434025645256,-0.9327674508094788,jumping
1783090662278596000,5.52859619140625,-2.493956458111107,1.1053756093218925,-15.91191333323717,0.2371033579111099,-0.2145190685987472,-0.7104954719543457,jumping
1783090662288641300,5.538641357421875,-1.1306942480389028,2.750700683893263,-15.770858848905563,0.392302006483078,-0.3828534781932831,-0.4037760198116302,jumping
1783090662298685200,5.548685302734375,-0.0799189014978706,3.407623208402097,-14.539678054571151,0.1017855778336525,-0.4131281077861786,-0.0864015594124794,jumping
1783090662308730000,5.558730224609375,0.1902986999720335,3.324972982244194,-13.110875085508823,-0.3742528557777405,-0.1831894516944885,0.1880797892808914,jumping
1783090662318774300,5.568774169921875,-0.268591461572796,2.6757141242310403,-13.41578742213249,-0.6415560245513916,0.2302330136299133,0.3209909200668335,jumping
1783090662328819200,5.578819091796875,-1.6928589791625737,1.8718623781383037,-15.134052645230293,-0.5280816555023193,0.6017687320709229,0.3401108086109161,jumping
1783090662338863000,5.588863037109375,-2.796065427751839,1.8844295987665651,-16.36133818569183,-0.2163911610841751,0.7955875992774963,0.356346070766449,jumping
1783090662348908300,5.598908203125,-2.7011466716513035,2.486349490238726,-16.747552840995787,0.1208398640155792,0.981131911277771,0.2373626977205276,jumping
1783090662358952200,5.6089521484375,-2.530615040683746,2.320698324789107,-17.220710451215506,0.4037172198295593,1.2865945100784302,0.0253384169191122,jumping
1783090662368997000,5.6189970703125,-2.1126080936692655,2.172453636692464,-15.924768138635155,0.6205797791481018,1.553736448287964,-0.1446863114833831,jumping
1783090662379041300,5.629041259765625,-1.102095199411735,2.071415813189745,-12.272358561009169,0.7076901793479919,1.70249342918396,-0.2513047456741333,jumping
1783090662389086200,5.639086181640625,-0.1317445849988609,2.072476428158581,-8.04563518397808,0.6153043508529663,1.7707065343856812,-0.2643744647502899,jumping
1783090662399130000,5.649130126953125,0.9515576511375604,2.19208071270436,-3.902659180691838,0.3424513638019562,1.7081400156021118,-0.1223020628094673,jumping
1783090662409175000,5.659175048828125,2.3391028732687236,2.476906539110839,0.0279839854687452,0.00247488822788,1.5206588506698608,0.1099444925785064,jumping
1783090662419219200,5.66921923828125,3.721025725473463,2.1550547581240536,2.4699592041909693,-0.2788266241550445,1.4228708744049072,0.2938129603862762,jumping
1783090662429264400,5.679264404296875,3.84511943039298,1.275454528085887,3.062822221243381,-0.4251748025417328,1.4301825761795044,0.3997180759906769,jumping
1783090662439308300,5.689308349609375,2.6775390015706417,-0.0067599956542253,3.7882010268628594,-0.4024268090724945,1.4456655979156494,0.407809168100357,jumping
1783090662449352200,5.699352294921875,0.7208496377572416,-1.3162591244220734,5.352906504321098,-0.2888008952140808,1.368570327758789,0.3437148928642273,jumping
1783090662459397000,5.709397216796875,-1.828440877301991,-1.877736238607764,7.747695024454593,-0.1463081836700439,1.1764582395553589,0.2782405018806457,jumping
1783090662469441300,5.719441162109375,-3.320529154577851,-1.8363602721244097,11.051199978995324,0.0172290876507759,0.7507287859916687,0.2250286787748336,jumping
1783090662479486200,5.729486328125,-3.39696854339689,-1.3734224426239727,14.62619781563878,0.2077003419399261,0.2059512883424759,0.2394998967647552,jumping
1783090662489530000,5.739530029296875,-3.566398058341443,-0.64064826605618,17.22766976883411,0.2849578559398651,-0.3712651431560516,0.2195730656385421,jumping
1783090662499575000,5.749574951171875,-3.19416692020446,-0.2783884868353605,18.875899917197227,0.1438892483711242,-0.7926110029220581,0.2170596271753311,jumping
1783090662509619200,5.759619140625,-2.616179692983627,0.1854351855888962,18.64009911072254,-0.0680831968784332,-0.9605089426040648,0.2511302530765533,jumping
1783090662519664400,5.769664306640625,-1.9053193881906567,0.15569997253865,16.491586029326914,-0.2044088840484619,-1.0181547403335571,0.2560018002986908,jumping
1783090662529708000,5.7797080078125,-1.3751288081504405,-0.7268295889496803,13.61847857068777,-0.2826938331127167,-0.8402550220489502,0.2238364219665527,jumping
1783090662539753200,5.789753173828125,-1.1295736465111377,-1.6734665886893867,10.23088312805295,-0.3419550359249115,-0.4184474647045135,0.1488365530967712,jumping
1783090662549797400,5.79979736328125,-0.7530915729314088,-2.706716580738127,6.6530024294495576,-0.3643274307250976,0.1509073376655578,0.0410104803740978,jumping
1783090662559842000,5.809842041015625,-0.22226316991169,-3.333487712611258,4.035162109777331,-0.3272274732589721,0.6308516263961792,-0.064586691558361,jumping
1783090662569886200,5.81988623046875,0.264628731954284,-3.682876027560234,2.727092137029767,-0.1870703697204589,1.011119365692139,-0.155585303902626,jumping
1783090662579931100,5.82993115234375,0.4335802175909281,-3.78494553219825,2.469870356863737,-0.0068118721246719,1.204081654548645,-0.1866210252046585,jumping
1783090662589975000,5.83997509765625,0.1925485247254371,-3.716119833253323,3.592904664734006,0.1081647798418998,1.1855943202972412,-0.2101093083620071,jumping
1783090662600020200,5.850020263671875,-0.5068641380537301,-4.169507744120061,5.877390397152304,0.0927887111902237,0.9700555205345154,-0.3201448023319244,jumping
1783090662610064400,5.860064453125,-1.3883986240901052,-5.340059882229566,8.602057937383652,-0.0249725449830293,0.6026199460029602,-0.5077282190322876,jumping
1783090662620109000,5.870109130859375,-2.130311069750786,-6.290742650228738,10.705676230520009,-0.1515880078077316,0.1803240776062011,-0.7049156427383423,jumping
1783090662630153200,5.8801533203125,-2.4133336461275814,-6.651470982098579,11.853521739041804,-0.2268987447023391,-0.2860758602619171,-0.8750473856925964,jumping
1783090662640197400,5.890197265625,-2.042898159235716,-6.575371492758393,12.146198863470554,-0.2454819232225418,-0.6955848932266235,-0.9759458303451538,jumping
1783090662650242000,5.900241943359375,-1.4360820201545952,-5.950912144958973,11.37325517359972,-0.2389438599348068,-0.9500033259391784,-0.9719814658164978,jumping
1783090662660286200,5.9102861328125,-0.6770940095957368,-5.031978852441907,9.893919118130206,-0.2162553668022155,-1.0174885988235474,-0.8786515593528748,jumping
1783090662670331100,5.9203310546875,0.1724318385656923,-4.021497157040238,8.562464178141951,-0.1491767317056656,-0.9644644856452942,-0.7178347110748291,jumping
1783090662680375000,5.930375,0.9067415541376918,-3.310081118060648,7.946196320104598,-0.0888562873005867,-0.8378617763519287,-0.528215765953064,jumping
1783090662690420200,5.940420166015625,1.3440030175246298,-3.0063138598188757,7.9104791100353,-0.0650172680616378,-0.6693878173828125,-0.3310339748859405,jumping
1783090662700464000,5.950464111328125,1.5159543060317635,-3.0472207474857567,8.132831236872077,-0.0560258030891418,-0.5099936127662659,-0.1640888750553131,jumping
1783090662710509300,5.96050927734375,1.299457627224922,-3.1582983189657328,8.700904096060992,-0.0577078536152839,-0.4682363271713257,-0.0801396444439888,jumping
1783090662720553200,5.97055322265625,1.0656707909211516,-3.290435921870172,9.544583117890358,-0.1008244231343269,-0.512180507183075,-0.0467428788542747,jumping
1783090662730598100,5.98059814453125,0.8175111458718777,-3.3241558206424116,10.272978056460618,-0.2051175236701965,-0.6590330600738525,-0.0223469920456409,jumping
1783090662740642000,5.99064208984375,0.4564509516991674,-3.3842668827340003,10.82787053155899,-0.3824071884155273,-0.8719213604927063,0.0089458981528878,jumping
1783090662750687200,6.000687255859375,0.1420749316868372,-3.2185762620568275,10.282780488550662,-0.493717223405838,-1.02551007270813,0.1364647150039672,jumping
1783090662760731100,6.010731201171875,-0.8378636135488748,-2.2096245527014133,8.004358586215972,-0.4588458836078644,-1.2364327907562256,0.3437357544898987,jumping
1783090662770776300,6.0207763671875,-0.6634073564834893,-0.3769640118777752,5.933634846943616,-0.2291945666074752,-1.4887726306915283,0.576374351978302,jumping
1783090662780820200,6.0308203125,0.6424754814833402,1.8314274918973448,4.155772356495261,0.0288268662989139,-1.740999460220337,0.8990881443023682,jumping
1783090662790865200,6.040865234375,2.5300623752370477,3.9486286124452943,3.509060844877362,0.1800464689731598,-2.092231035232544,1.3043184280395508,jumping
1783090662800909300,6.050909423828125,4.458479876551031,5.353464722725748,3.5528374427616596,0.1017485633492469,-2.255218505859375,1.8634928464889529,jumping
1783090662810953200,6.060953125,3.2262469428151843,5.92730622844398,1.795062631574273,-0.0942595601081848,-2.514350414276123,2.240933656692505,jumping
1783090662820998100,6.070998046875,2.158084627339244,4.307178431232273,-0.4873679218798875,-0.1764443516731262,-2.710094928741455,2.4648683071136475,jumping
1783090662831042300,6.081042236328125,0.5117878581915051,4.065274339446425,-5.306535213768482,-0.1056183874607086,-1.9658032655715945,2.712317705154419,jumping
1783090662841087500,6.09108740234375,-4.774998772077262,4.485238411878049,-13.71122582796812,0.0513715408742427,-0.383240282535553,2.492156982421875,jumping
1783090662851131400,6.10113134765625,-5.811073466157913,1.5555369593575596,-20.800978337216375,-0.1138970479369163,1.7300810813903809,1.939611554145813,jumping
1783090662861176600,6.111176513671875,-4.185926087218522,0.5758446622341871,-24.83548402891159,-0.3635421693325043,3.530533790588379,1.4911713600158691,jumping
1783090662871220500,6.121220458984375,-4.2114524504020805,1.7348150836214422,-22.591050905418395,0.0215621087700128,4.3459038734436035,1.2305163145065308,jumping
1783090662881265400,6.131265380859375,-3.462862572804094,2.162955155985057,-15.344805519688128,0.5679287910461426,4.299100875854492,0.97039395570755,jumping
1783090662891309600,6.1413095703125,-3.6729672124862662,2.5994217426672575,-8.602814893230795,0.625580370426178,3.5530948638916016,0.6654545664787292,jumping
1783090662901354500,6.1513544921875,-4.39335770829916,2.0504674254462123,-5.4003176593154665,0.2031163871288299,2.447932481765747,0.3616887629032135,jumping
1783090662911398400,6.1613984375,-4.286522888955473,1.3874384007558225,-7.897639502206444,-0.1081986129283905,1.0543313026428225,-0.0543276071548461,jumping
1783090662921443600,6.171443603515625,-2.7664219846382734,1.1920347788602113,-11.508697078746556,0.0155698079615831,-0.424981951713562,-0.3654567897319793,jumping
1783090662931487500,6.181487548828125,-1.0591063909042626,1.8154668294385077,-14.255766420400144,0.2917372286319732,-1.6525628566741943,-0.5397620797157288,jumping
1783090662941532400,6.191532470703125,0.538458569104597,2.169283774484694,-15.191154588633776,0.394069641828537,-2.3274478912353516,-0.6121734380722046,jumping
1783090662951576600,6.20157666015625,1.288719813980907,2.966174157132208,-15.09091726785898,0.2407477498054504,-2.096557855606079,-0.5299600958824158,jumping
1783090662961621500,6.21162158203125,1.182439852041006,4.068039712506533,-16.340706901073453,-0.0409960635006427,-1.253229737281799,-0.2772054970264435,jumping
1783090662971665400,6.22166552734375,1.467312147937715,5.245126513081789,-17.017150703132153,-0.2288602441549301,-0.2690060138702392,0.0370379164814949,jumping
1783090662981709600,6.23170947265625,1.2482584781244397,5.849104798388481,-16.53894866900444,-0.2779503166675567,0.4515148997306824,0.3139790892601013,jumping
1783090662991754500,6.24175439453125,0.530775101929903,5.672065392962097,-14.919830048835276,-0.288726806640625,0.8468930721282959,0.5785436630249023,jumping
1783090663001798400,6.25179833984375,-0.5044067349642515,5.994774667561054,-13.820807315671445,-0.1849712282419204,0.9536141157150269,0.7194164991378784,jumping
1783090663011843300,6.26184326171875,-1.1681051833488048,6.019598143172264,-14.243614210313558,0.0237127467989921,0.8718867301940918,0.7182633280754089,jumping
1783090663021887500,6.271887451171875,-1.2363963370256126,5.6398857093691825,-15.808513749039172,0.2715818881988525,0.7534596920013428,0.5541275143623352,jumping
1783090663031932700,6.2819326171875,-0.9354645214054732,4.477995308881998,-15.873016908609866,0.4581578969955444,0.4958564043045044,0.2476437091827392,jumping
1783090663041976600,6.2919765625,-0.285941824824363,3.041184974452853,-13.251756551361083,0.5467773079872131,0.1744894683361053,-0.0077265780419111,jumping
1783090663052021500,6.302021484375,0.2066328719183802,2.635693956270814,-9.800658066108822,0.5878555178642273,-0.157429352402687,-0.1940131038427353,jumping
1783090663062065400,6.3120654296875,0.764959632314369,2.79503783826977,-5.804695747819543,0.5812692046165466,-0.4670749008655548,-0.2912497520446777,jumping
1783090663072110300,6.3221103515625,1.6432357010766865,3.0659795162305232,-1.9912807847231624,0.446919173002243,-0.692523181438446,-0.2756041884422302,jumping
1783090663082154500,6.332154541015625,2.2649106788545845,3.092700642156601,0.8005547503739595,0.3008996546268463,-0.7881821990013123,-0.2204978764057159,jumping
1783090663092199700,6.34219970703125,2.497864279204607,1.9865736299455168,2.78232770203948,0.241373211145401,-0.781314492225647,-0.1801352798938751,jumping
1783090663102243300,6.352243408203125,1.904813776756078,0.1114642327100038,4.361083332160115,0.2095676511526107,-0.6588840484619141,-0.1223181709647178,jumping
1783090663112288500,6.36228857421875,0.5948854993233457,-1.6797861470997333,5.889250930815935,0.2044650316238403,-0.5991653203964233,-0.1142445355653762,jumping
1783090663122332700,6.372332763671875,-0.1942930303052067,-3.190156223258376,7.500846169742942,0.2500548660755157,-0.6421086192131042,-0.1531318873167038,jumping
1783090663132376300,6.382376220703125,-0.3928797026837244,-3.3460859128996727,9.080456955388188,0.3406532108783722,-0.7863571643829346,-0.1896121352910995,jumping
1783090663142421500,6.39242138671875,-1.067568733496964,-2.774048826254904,11.145737042301892,0.4700594544410705,-0.8391897082328796,-0.182765781879425,jumping
1783090663152465700,6.402465576171875,-0.4856814300976693,-2.43917623565346,12.23835458459854,0.5731309652328491,-0.9361801743507384,-0.112440213561058,jumping
1783090663162510300,6.41251025390625,0.8420485710833221,-1.1805535999029877,13.767003244769572,0.608691394329071,-1.00866961479187,0.0915179774165153,jumping
1783090663172554500,6.422554443359375,1.609537429614365,-0.2074710763081908,15.192327139544489,0.4955861270427704,-0.9823996424674988,0.3069298863410949,jumping
1783090663182599400,6.432599365234375,1.2636375413030383,-0.1363984752193093,16.154021130901572,0.2075806409120559,-0.9346303939819336,0.4377014338970184,jumping
1783090663192643300,6.442643310546875,0.7539472399126738,-0.8776473424047231,15.807847394084927,-0.1252998411655426,-0.8112419247627258,0.4714548587799072,jumping
1783090663202688500,6.4526884765625,0.1162109157804399,-1.5144403943374751,13.665324493014811,-0.3744236826896667,-0.5425583720207214,0.4588570594787597,jumping
1783090663212732700,6.462732666015625,-0.2658515152148902,-2.127423239354789,10.975137314534187,-0.5108451843261719,-0.1842276602983474,0.4346984624862671,jumping
1783090663222777300,6.47277734375,0.0710431192660704,-2.9583240281537173,8.528416362589597,-0.5415873527526855,0.2349831759929657,0.3472272455692291,jumping
1783090663232821500,6.482821533203125,0.5206805550254882,-3.863842251041531,6.421997040557861,-0.5193299651145935,0.6711301207542419,0.2307619005441665,jumping
1783090663242866400,6.492866455078125,0.662937985406071,-4.194788315849006,5.132603126707672,-0.4866290986537933,0.9833396673202516,0.0996417999267578,jumping
1783090663252910300,6.502910400390625,0.783408312196657,-3.9967683739751574,4.758146713736653,-0.4562829136848449,1.1294585466384888,-0.0279995184391737,jumping
1783090663262955500,6.51295556640625,0.7888338443767279,-3.6501617986992,4.749841242206096,-0.4035642445087433,1.1746870279312134,-0.1256144344806671,jumping
1783090663272999400,6.52299951171875,0.3739251556385308,-3.315734613777697,5.205645566564798,-0.3647071123123169,1.1459368467330933,-0.2003062516450882,jumping
1783090663283044600,6.533044677734375,-0.0848610888740979,-3.182360162554681,6.647762190708518,-0.3550272583961487,1.0059595108032229,-0.2562925517559051,jumping
1783090663293088500,6.543088623046875,-0.3097269703637808,-3.3925939815744757,8.65819658871293,-0.3781456351280212,0.7867880463600159,-0.2889735400676727,jumping
1783090663303132400,6.55313232421875,-0.6027185675691813,-3.706475806595385,10.251999565839768,-0.4151580333709717,0.5336304903030396,-0.2991486489772796,jumping
1783090663313177600,6.563177490234375,-0.8679042392864823,-4.049092727713287,11.20589018996954,-0.4611295163631439,0.2838691174983978,-0.3188429772853851,jumping
1783090663323221500,6.573221435546875,-0.8338101003743708,-4.362731976149976,11.579432410705088,-0.5045428276062012,0.0738237351179122,-0.3210868537425995,jumping
1783090663333266400,6.583266357421875,-0.4507762305309996,-4.204937369419634,11.293119560611249,-0.5046988725662231,-0.0115036815404891,-0.2561794817447662,jumping
1783090663343310600,6.593310546875,-0.1894015502029098,-3.5311844138801094,10.5514559751451,-0.4829690754413605,0.0090870801359415,-0.1490482538938522,jumping
1783090663353355500,6.60335546875,-0.3539619430074468,-2.849819229771197,9.96537808818817,-0.5319448709487915,0.0710290148854255,-0.0534455589950084,jumping
1783090663363399400,6.6133994140625,-0.4212052681317553,-2.8146730975881216,9.957138667631147,-0.6204522848129272,0.1234627142548561,-0.0054506147280335,jumping
1783090663373444600,6.623444580078125,-0.7162681551858783,-3.186346309581398,9.875455240678786,-0.6713809967041016,0.1728185415267944,-0.0009368229657411,jumping
1783090663383488500,6.633488525390625,-0.8521730016693473,-3.383695220325887,9.396938149252533,-0.6405461430549622,0.2196671813726425,-0.0032508005388081,jumping
1783090663393533400,6.643533447265625,-0.6322478827837854,-3.422223103901744,8.90848126309216,-0.5460960865020752,0.1800417453050613,-0.0392503477632999,jumping
1783090663403577600,6.65357763671875,-0.4307227823331951,-3.5805607314676045,8.511479256314038,-0.4520015120506286,0.0725065022706985,-0.0786961317062377,jumping
1783090663413622300,6.663622314453125,-0.9328133493095636,-3.39943054959625,7.831217357271909,-0.4073405861854553,-0.1721514463424682,-0.0730496942996978,jumping
1783090663423666400,6.67366650390625,-1.084308125243336,-2.917611494015157,7.202271219447255,-0.3974172472953796,-0.419203370809555,0.0388088822364807,jumping
1783090663433711600,6.683711669921875,-1.2295324426054954,-2.091307093095779,5.880519342827797,-0.3079414367675781,-0.6313776969909668,0.1344922631978988,jumping
1783090663443755300,6.69375537109375,-0.2430803872899152,-1.5073106885880232,4.435368465554714,-0.0493468940258026,-0.6238217353820801,0.3307998180389404,jumping
1783090663453800400,6.703800537109375,0.0387361560316756,-0.111706224772334,2.081642023649811,0.2421275526285171,-0.5839824080467224,0.5820155739784241,jumping
1783090663463844600,6.7138447265625,1.555414794282615,0.7118544303968548,1.147771274241805,0.3546992242336273,-0.8545385003089905,0.771582841873169,jumping
1783090663473888500,6.723888427734375,4.7415080058857795,1.9451091083958745,1.8368992013067007,0.0884038656949997,-0.9736348390579224,1.1826403141021729,jumping
1783090663483933400,6.733933349609375,5.41342322460413,3.8590842428594825,0.0173234752446413,-0.4459043741226196,-0.4112504422664642,1.8064470291137695,jumping
1783090663493977600,6.7439775390625,0.5383855769336223,4.263030661948025,-5.9482151609599585,-0.8842366933822632,0.499352753162384,1.9268625974655151,jumping
1783090663504022500,6.7540224609375,-4.2361727578997606,0.9595675007224084,-11.11062481238842,-0.8270063400268555,0.674700915813446,1.4140172004699707,jumping
1783090663514066400,6.76406640625,-2.663233997364342,-2.404265665791929,-12.156823133337497,-0.3857564926147461,0.9291121363639832,0.9112951755523682,jumping
1783090663524111600,6.774111572265625,-3.3231156639397144,-0.6693181879624724,-16.684359010457992,0.2673481702804565,1.6063282489776611,0.5892200469970703,jumping
1783090663534155300,6.7841552734375,-3.5831747133582827,1.8620792352706192,-18.36319940114021,0.8106226325035095,2.025555372238159,0.3127527832984924,jumping
1783090663544200400,6.794200439453125,-1.689295295331627,4.797209434841573,-14.49510592239499,0.9133230447769164,2.125394105911255,-0.0475883036851882,jumping
1783090663554244600,6.80424462890625,-1.427570796918869,6.348997270798683,-11.184454603230952,0.6683471202850342,1.7818691730499268,-0.355501651763916,jumping
1783090663564289500,6.81428955078125,-0.866730665462464,5.2788978497803205,-9.873534501749276,0.4388447403907776,0.9779952764511108,-0.6226474046707153,jumping
1783090663574333400,6.82433349609375,0.3745813545249402,3.0965181546181437,-10.33560139363408,0.4191722273826599,-0.0231596156954765,-0.8486669659614563,jumping
1783090663584378400,6.83437841796875,0.8095611367154866,1.103016771236062,-12.29889117862582,0.4934059381484985,-0.9362155199050904,-1.0275993347167969,jumping
1783090663594422500,6.844422607421875,1.109840041384846,0.2929232081443071,-14.526227036845684,0.5671312808990479,-1.456790804862976,-1.0858783721923828,jumping
1783090663604467500,6.854467529296875,1.7576701817691325,0.4377405521407723,-15.791698223316669,0.6085191369056702,-1.6153937578201294,-0.9724431037902832,jumping
1783090663614511600,6.86451171875,1.9402061387851832,1.968681707163155,-16.025301227486132,0.5235890746116638,-1.334015130996704,-0.7099201083183289,jumping
1783090663624555500,6.874555419921875,2.4408650655232367,4.29114674936384,-16.64387268629074,0.2628530859947204,-0.6223262548446655,-0.2711509168148041,jumping
1783090663634600400,6.884600341796875,3.2792718460381027,6.721860277098417,-17.33155567524433,-0.0156829338520765,0.1667941659688949,0.2258926779031753,jumping
1783090663644644600,6.89464453125,3.4128529257491227,8.383988017910719,-17.550062817090748,-0.0805086940526962,0.7917143106460571,0.7220987677574158,jumping
1783090663654689500,6.904689453125,2.543465169906616,8.727916021627188,-17.695691769731045,0.0962530374526977,1.08088481426239,1.0146087408065796,jumping
1783090663664733400,6.9147333984375,1.77866050895825,7.795009733337164,-16.915876440525054,0.3373611569404602,1.146723747253418,1.0662778615951538,jumping
1783090663674778400,6.9247783203125,1.0252235566552728,6.466205600118637,-16.24194023737311,0.512579619884491,1.2653547525405884,0.8945173025131226,jumping
1783090663684822500,6.934822509765625,0.6995746484078467,4.7940527243763205,-15.074503893196582,0.5899565815925598,1.471993088722229,0.6593009829521179,jumping
1783090663694867500,6.944867431640625,0.6701501087419688,3.3116254248932,-12.770529031932352,0.6115183234214783,1.6897730827331543,0.4112900793552398,jumping
1783090663704911400,6.954911376953125,0.4045302103258669,2.5251278414443132,-9.756892574140428,0.6012816429138184,1.677812099456787,0.1511129587888717,jumping
1783090663714956500,6.96495654296875,0.3951479033440351,2.2656267181694507,-6.1787622846901415,0.4857318997383117,1.3647215366363523,-0.0824633091688156,jumping
1783090663725000400,6.97500048828125,0.1760752365693449,2.7425562481433152,-3.386380806148052,0.3329708874225616,0.7982730865478516,-0.2122901231050491,jumping
1783090663735045400,6.98504541015625,0.4120901241861283,2.8719012977197766,-1.6134984421998262,0.2344217002391815,0.0863962620496749,-0.2967048585414886,jumping
1783090663745089500,6.995089599609375,0.8278897704146801,2.1502426816672084,-0.6079921971231699,0.2395955324172973,-0.5781514048576355,-0.3445828258991241,jumping
1783090663755134500,7.005134521484375,0.7990981218248605,1.4975155630216002,0.3596884674280882,0.4067997336387634,-1.0722147226333618,-0.3839789628982544,jumping
1783090663765178400,7.015178466796875,0.3447305522710084,0.6135781805619597,2.3747470181018113,0.6769968271255493,-1.2782628536224363,-0.3783421516418457,jumping
1783090663775222500,7.025222412109375,-0.7409151051864028,-0.4453188784405589,5.109633754530549,0.9565248489379884,-1.2835631370544434,-0.4167318642139435,jumping
1783090663785267700,7.035267822265625,-1.697577970508486,-1.7207319054722785,8.497663496929407,1.1084092855453491,-1.4216599464416504,-0.5386002063751221,jumping
1783090663795311400,7.045311279296875,-1.22734165456295,-2.3802254495128987,12.342676544338463,1.081729292869568,-1.6787590980529783,-0.541359543800354,jumping
1783090663805356500,7.0553564453125,-1.5904633113101123,-2.1984639840006825,14.34377905037403,0.8528510332107544,-1.9240164756774905,-0.5549871921539307,jumping
1783090663815400700,7.065400634765625,-0.9802070417124776,-2.681000247940421,14.820236871182916,0.549462080001831,-2.05287504196167,-0.5218329429626465,jumping
1783090663825445400,7.0754453125,-0.0604788724906742,-2.773830799590051,14.100575858688352,0.3165701925754547,-1.8530724048614504,-0.4091506600379944,jumping
1783090663835489500,7.085489501953125,-0.0781332601901143,-2.645907014988363,12.635836483848092,0.2461594045162201,-1.4978841543197632,-0.2649892270565033,jumping
1783090663845534500,7.095534423828125,-0.0565317240337841,-2.8516595969408747,12.455119851213691,0.2622331380844116,-1.0951744318008425,-0.17437045276165,jumping
1783090663855578600,7.10557861328125,-0.368559938810952,-3.2082474680051205,12.820226252037283,0.1938018798828125,-0.7089567184448242,-0.1267930716276168,jumping
1783090663865623600,7.11562353515625,-0.4996277205267921,-3.2256887244105337,13.127431083512306,0.0292273610830307,-0.3858954012393951,-0.1284681409597396,jumping
1783090663875667500,7.12566748046875,-0.4585818262480199,-3.067574676467478,12.800589823675155,-0.1211459040641784,-0.0472342483699321,-0.0974146127700805,jumping
1783090663885712600,7.135712646484375,-0.4310005398286506,-2.3677210649877787,11.216831270700691,-0.2231410145759582,0.3146761655807495,-0.0208889115601778,jumping
1783090663895756500,7.145756591796875,-0.277562082481198,-1.9098118773043156,9.057484660601617,-0.2544467449188232,0.6358650922775269,0.0761417597532272,jumping
1783090663905801500,7.155801513671875,-0.0039185799495317,-1.9195134793683888,7.423658885166048,-0.2386646270751953,0.904845893383026,0.1558928042650222,jumping
1783090663915845600,7.165845703125,0.1097815037874504,-2.1848703429341314,6.364259721860289,-0.1900576800107956,1.107483148574829,0.1959065347909927,jumping
1783090663925889500,7.1758896484375,0.3404681455861776,-2.729080680498481,5.963637771019339,-0.1683114618062973,1.1952276229858398,0.2157299220561981,jumping
1783090663935934500,7.1859345703125,0.3887395706716924,-2.918381601604819,6.198332662078738,-0.1313827484846115,1.126939296722412,0.2295551896095276,jumping
1783090663945978600,7.195978515625,0.534149327603355,-2.749996627277136,7.078971587514877,-0.0734806358814239,0.9662548303604126,0.2365127503871917,jumping
1783090663956023600,7.2060234375,0.2468569649528711,-2.9272715950250623,7.990481452032923,0.018738767132163,0.8230124711990356,0.2054142206907272,jumping
1783090663966067500,7.2160673828125,-0.3906884397171437,-3.624534605489671,9.365642262756824,0.1092396080493927,0.5410968661308289,0.1021556183695793,jumping
1783090663976112600,7.226112548828125,-0.995724563513696,-4.3202652918204665,11.475768622612952,0.0190117079764604,0.1157881766557693,-0.1050692051649093,jumping
1783090663986156500,7.236156494140625,-1.120106510790065,-4.8776180195525285,11.818873619508745,-0.3535593450069427,-0.3347711265087127,-0.2637856304645538,jumping
1783090663996201500,7.246201416015625,-1.1684704364646226,-3.9264562358647583,10.752156242144109,-0.4417576193809509,-0.5391814708709717,-0.3765558302402496,jumping
1783090664006245600,7.25624560546875,-1.023301867877692,-2.8178602031916378,9.150956140503286,-0.3009948432445526,-0.7134912014007568,-0.4757576584815979,jumping
1783090664016290600,7.26629052734375,-0.7639704020813107,-1.9988328075379131,7.837099985569715,0.0591697469353675,-0.6741198301315308,-0.5818031430244446,jumping
1783090664026334500,7.27633447265625,-0.9649838266827164,-1.9313409875452516,7.396989489427209,0.4426045715808868,-0.620549738407135,-0.6314641237258911,jumping
