time,seconds_elapsed,accel_x,accel_y,accel_z,gyro_x,gyro_y,gyro_z,label
1783090675553638000,0.050637939453125,-0.0769160664200782,-0.392906261897087,-0.3101139969199896,0.309327483177185,-0.2428664863109588,-0.0522839240729808,jumping
1783090675563682000,0.06068212890625,-0.4510628289200365,-0.2133773777425289,-0.4886895258724689,0.2350521981716156,-0.051637664437294,-0.0373068414628505,jumping
1783090675573726000,0.070725830078125,-0.5011708217829466,-0.1390387605950236,-0.4145189587682485,0.1786660701036453,0.142507717013359,-0.0327913053333759,jumping
1783090675583771000,0.08077099609375,-0.262079010938853,-0.1003966029897332,-0.3621645021528005,0.1118271127343177,0.2766745686531067,-0.0327705331146717,jumping
1783090675593815000,0.09081494140625,-0.1349912387698888,0.0474538250923156,-0.4323188193529844,0.0486819297075271,0.3385679423809051,-0.0278471112251281,jumping
1783090675603860000,0.10085986328125,-0.154684511885792,0.3482438210889697,-0.7118564762234687,0.0607934556901454,0.3523750901222229,0.0167592391371727,jumping
1783090675613904000,0.11090380859375,-0.1713458699598908,0.7096689030513167,-0.8596265325456857,0.1772910356521606,0.2798538208007812,0.0798714607954025,jumping
1783090675623949000,0.120948974609375,-0.1079736141152679,0.964079132927954,-0.9280056567668914,0.3301679491996765,0.1373283714056015,0.1527880132198333,jumping
1783090675633993000,0.130992919921875,-0.0876559254907071,1.0387143949344753,-0.9988409419685602,0.446511834859848,0.0200844202190637,0.2083919644355774,jumping
1783090675644038000,0.141037841796875,-0.133425158496946,0.9710419576779008,-0.9542875144928692,0.4731189310550689,-0.0702729076147079,0.2452967166900634,jumping
1783090675654082000,0.15108203125,-0.098218674428761,0.8851055494561791,-0.785350166979432,0.4073452651500702,-0.1449142694473266,0.2705509960651397,jumping
1783090675664127000,0.161126953125,0.0649348289862275,0.8366691430673002,-0.4678127420604229,0.3030854165554046,-0.2092884629964828,0.2925684154033661,jumping
1783090675674171000,0.1711708984375,0.1687910709105431,0.80768737873286,-0.1265215165883302,0.2185913324356079,-0.2609957754611969,0.3180475234985351,jumping
1783090675684216000,0.181216064453125,0.2441023324824869,0.6860656168848276,0.1543003348737955,0.175079271197319,-0.2929031252861023,0.3354991972446441,jumping
1783090675694260000,0.191260009765625,0.3339890857651829,0.5448267158970237,0.5484224023014307,0.1576322466135025,-0.3578687012195587,0.346452534198761,jumping
1783090675704305000,0.201304931640625,0.3528137593530118,0.4784098316594958,0.8597545428395271,0.1550854593515396,-0.4392993748188019,0.3700470626354217,jumping
1783090675714349000,0.21134912109375,0.296002469459176,0.5126034854233265,0.9917191272646187,0.1661969721317291,-0.5107995271682739,0.4341014921665191,jumping
1783090675724394000,0.22139404296875,0.2824453610107302,0.6492299241796136,1.0544126070648432,0.1987184286117553,-0.5683819055557251,0.5228731632232666,jumping
1783090675734438000,0.23143798828125,0.2051997703753411,0.7638061514303087,0.8569476687252521,0.3167361319065094,-0.5448099970817566,0.6203888058662415,jumping
1783090675744482000,0.24148193359375,0.2496203652516007,0.8631137901395559,1.0235685559898615,0.485996812582016,-0.4712675809860229,0.695888340473175,jumping
1783090675754527000,0.25152685546875,0.4399545749284326,0.7869166856437921,1.5340800375699997,0.6299954056739807,-0.3945265412330627,0.7232034802436829,jumping
1783090675764571000,0.26157080078125,0.3625276363767683,0.6909405294448137,1.9464912104040384,0.6950793266296387,-0.3170442581176758,0.7310342192649841,jumping
1783090675774616000,0.271615966796875,0.1695223077945411,0.6492980209797621,2.378680265897512,0.666837215423584,-0.2475017607212066,0.7553635835647583,jumping
1783090675784660200,0.28166015625,0.1935581401593983,0.4898799047008156,2.8971307237833734,0.5741370916366577,-0.2132686823606491,0.7969344258308411,jumping
1783090675794705000,0.291704833984375,0.3499018174290657,0.0643453386604785,3.21564371573627,0.4600131213665008,-0.2076417654752731,0.8219969868659973,jumping
1783090675804749000,0.3017490234375,0.5305338405199349,-0.4355357355728745,3.1289900991559025,0.3889165818691253,-0.2482720166444778,0.8108183741569519,jumping
1783090675814794000,0.3117939453125,0.7833505175948142,-0.6811489110097289,2.853313793888688,0.4198132455348968,-0.2769676744937897,0.7644646167755127,jumping
1783090675824838000,0.321837890625,0.9691169809646905,-0.5244993826612829,2.66005858219862,0.5036202669143677,-0.3060190379619598,0.7157370448112488,jumping
1783090675834883000,0.331883056640625,0.9459734212644396,-0.1235734804376959,2.688440042552352,0.5604424476623535,-0.3415047526359558,0.6904303431510925,jumping
1783090675844927000,0.341927001953125,0.8050121681742369,0.1696516332626342,2.722839740282297,0.5138634443283081,-0.3340708017349243,0.6856291890144348,jumping
1783090675854971100,0.35197119140625,0.5748080126628279,0.2720329803287983,2.744703197044134,0.3648397624492645,-0.2879335284233093,0.6987985372543335,jumping
1783090675865015300,0.362015380859375,0.405948406560719,0.1428004512161016,2.8458763373643157,0.1844419986009597,-0.2468166947364807,0.7036455273628235,jumping
1783090675875060200,0.372060302734375,0.2623984521515667,-0.0368280939206481,2.8669851763665672,0.07037103921175,-0.2408309280872345,0.6938511729240417,jumping
1783090675885104000,0.382104248046875,-0.0300695595711469,-0.4164724309235811,2.7447458671420812,0.0486865118145942,-0.2550585865974426,0.6720289587974548,jumping
1783090675895149300,0.3921494140625,-0.6961283073462545,-0.7805363369569182,2.3261650657624005,0.0894525274634361,-0.188677504658699,0.6350733637809753,jumping
1783090675905193200,0.402193115234375,-1.2962087084315717,-0.8507809627890587,2.0203157405495644,0.1379489600658416,-0.017918549478054,0.6100785136222839,jumping
1783090675915238100,0.412238037109375,-1.375422238139063,-0.6717983143404126,2.0629642111867663,0.10603629052639,0.1774351596832275,0.628844141960144,jumping
1783090675925282300,0.4222822265625,-0.8987401070550084,-0.1836293052107095,2.3070026846528053,-0.0289574787020683,0.314083844423294,0.7037140727043152,jumping
1783090675935326500,0.432326416015625,-0.035204730502516,0.4435752496436238,2.7520833704233167,-0.2495309114456176,0.3353276550769806,0.7807465195655823,jumping
1783090675945371100,0.44237109375,1.0328623079054058,1.0196914222955704,3.48220907830894,-0.4631460011005401,0.2111210227012634,0.8754740953445435,jumping
1783090675955415300,0.452415283203125,1.8679541186533868,1.537856048977375,4.2697313286304475,-0.6330699920654297,0.0255628824234008,0.982829451560974,jumping
1783090675965460200,0.462460205078125,2.19577854430899,1.9390508312702175,5.243244937118887,-0.6968482136726379,-0.1759324222803115,1.0495489835739136,jumping
1783090675975504100,0.472504150390625,1.6368889623984693,2.3662492388695475,6.212407949182391,-0.6893228888511658,-0.282974362373352,1.160727858543396,jumping
1783090675985549300,0.48254931640625,0.45952802105695,2.293063298888504,7.283196521508693,-0.5396223664283752,-0.3729205131530761,1.3420382738113403,jumping
1783090675995593200,0.49259326171875,-0.6298267200514673,0.7364160402014851,8.0364809866637,-0.3024561405181885,-0.425262838602066,1.3728317022323608,jumping
1783090676005638100,0.50263818359375,-0.7281603991620242,-2.2072592848747967,7.042799619415402,-0.3999081254005432,-0.5930944681167603,1.058564305305481,jumping
1783090676015682300,0.512682373046875,-0.8935881311193108,-3.508040561918914,5.799518637442588,-0.2449522614479065,-0.5169812440872192,0.7307459115982056,jumping
1783090676025727200,0.522727294921875,-1.2326917834192517,-3.8067443992912766,4.301398971047997,-0.0041899844072759,-0.4110409617424011,0.4193800687789917,jumping
1783090676035771100,0.532771240234375,-0.6438416552700102,-4.034391709926724,1.7821949666947126,0.0546756014227867,-0.2131171822547912,0.0716451629996299,jumping
1783090676045816000,0.542816162109375,-1.3834592679917812,-3.709138596063852,-1.7007202140569686,0.1470465362071991,0.34286829829216,-0.2058301120996475,jumping
1783090676055860200,0.552860107421875,-2.9500898682937025,-3.4269416568562385,-4.067780769309401,0.4152323603630066,1.0444422960281372,-0.3542898595333099,jumping
1783090676065905400,0.562905517578125,-2.9104437943428754,-3.6544261781454086,-5.424552521383762,0.6459667682647705,1.8179610967636108,-0.4506294429302215,jumping
1783090676075949300,0.57294921875,-1.805427519852668,-3.427582877369225,-7.610720502912998,0.5505416393280029,2.7608485221862793,-0.5599415898323059,jumping
1783090676085993200,0.5829931640625,-1.07742318803519,-1.9354218271180983,-10.241577540546656,0.2426304072141647,3.7007336616516113,-0.4941609501838684,jumping
1783090676096038400,0.593038330078125,-0.7572202702339739,0.2595055071890354,-11.98859422635436,-0.0166050121188163,4.274665832519531,-0.1484783738851547,jumping
1783090676106082300,0.603082275390625,0.1465476749204099,1.1217866458967327,-11.483584849321842,0.0049255806952714,4.005475997924805,0.3101168870925903,jumping
1783090676116127200,0.613127197265625,-0.2953740718951448,0.8945654517188668,-11.29572652823925,0.3834625482559204,2.9949185848236084,0.6236847043037415,jumping
1783090676126171400,0.62317138671875,-1.4349389875993133,0.5526359283432364,-11.786344976347683,0.9127002954483032,1.573797345161438,0.8377118110656738,jumping
1783090676136216000,0.633216064453125,-1.7632742853865029,0.4734299974203109,-12.404239558804036,1.185198187828064,0.1801158338785171,0.93072247505188,jumping
1783090676146260200,0.64326025390625,-1.180267914829403,1.6939111185640097,-13.016210596430302,1.0601401329040527,-0.8314996957778931,0.870487630367279,jumping
1783090676156305400,0.653305419921875,-0.6016761458441615,3.675388009892404,-12.214691969460247,0.8339012265205383,-1.5347392559051514,0.8025283813476562,jumping
1783090676166349000,0.66334912109375,-0.2328633282506838,4.251847589154541,-12.379259431326387,0.5844988226890564,-2.056422710418701,0.682461678981781,jumping
1783090676176394200,0.673394287109375,0.1041465209746267,4.728961243523657,-13.037702297270297,0.4470338225364685,-2.160725355148315,0.5280903577804565,jumping
1783090676186438400,0.6834384765625,0.037550846104091,4.871704119333624,-13.961087893021103,0.4014407694339752,-1.8004660606384275,0.3107753098011017,jumping
1783090676196483000,0.693483154296875,-0.1900253263907507,4.92055787435174,-14.617122528779506,0.3311986923217773,-1.0918471813201904,0.0421090461313724,jumping
1783090676206527200,0.70352734375,-0.4925224185662343,5.317790182754397,-15.104508570837972,0.1616906076669693,-0.2663916349411011,-0.1612600535154342,jumping
1783090676216572200,0.713572265625,-0.6846652485676109,5.3054398197472095,-15.654570557039976,-0.0496572032570838,0.583814263343811,-0.2887842059135437,jumping
1783090676226616000,0.723615966796875,-0.6407140247687697,4.629786291283369,-14.98332549266815,-0.2004624307155609,1.2465895414352417,-0.4061755537986755,jumping
1783090676236661200,0.7336611328125,-0.4045980148650706,3.913758666855097,-13.193297348129748,-0.1771210283041,1.6112473011016846,-0.4949069619178772,jumping
1783090676246705400,0.743705322265625,0.0431235499361995,3.874247325199842,-10.808244624590872,-0.095302052795887,1.663964867591858,-0.5355163812637329,jumping
1783090676256749000,0.7537490234375,0.8825264927484094,3.906293737801909,-8.471023327285051,0.011992578394711,1.475758075714111,-0.5149835348129272,jumping
1783090676266794200,0.763794189453125,1.5582744214974342,3.8036546165823935,-6.3124120457232,0.0307026151567697,1.113453388214111,-0.4545015394687652,jumping
1783090676276838400,0.77383837890625,1.837516894813627,3.1292382286980747,-4.132671466892957,-0.0856607928872108,0.7242746949195862,-0.3886827528476715,jumping
1783090676286883300,0.78388330078125,1.6899876615099607,2.2132278378903862,-1.6935761875212192,-0.2752698957920074,0.3007223606109619,-0.3104798197746277,jumping
1783090676296927200,0.79392724609375,1.633020012010634,1.3035662315875292,1.2029431263655423,-0.4249143302440643,-0.2507302463054657,-0.2073975056409835,jumping
1783090676306972200,0.80397216796875,1.4894380550280213,0.3543243100464344,3.661744392204284,-0.3746447563171386,-0.7907685041427612,-0.1246003583073616,jumping
1783090676317016000,0.81401611328125,0.8727808323469013,-0.699563688622415,5.326842088738084,-0.2486909031867981,-1.1787205934524536,-0.1293489038944244,jumping
1783090676327061200,0.824061279296875,0.0954595575795043,-1.968172296336293,6.899352102467417,-0.1501544713973999,-1.45205819606781,-0.2033922374248504,jumping
1783090676337105200,0.834105224609375,-0.7202445114709436,-2.975751256033778,9.190402015706896,-0.1364820301532745,-1.659030556678772,-0.3699590265750885,jumping
1783090676347150300,0.844150390625,-0.9550527997769416,-3.256298089946806,11.75343288682699,-0.2209055423736572,-1.9567407369613647,-0.5750077962875366,jumping
1783090676357194200,0.8541943359375,-0.5422297216737643,-2.9918706161856647,13.54396956540942,-0.3419511318206787,-2.2978272438049316,-0.7328336834907532,jumping
1783090676367239200,0.8642392578125,0.1794135872118175,-2.3145573378160593,14.496493577361106,-0.4637249708175659,-2.5854551792144775,-0.791208028793335,jumping
1783090676377283300,0.874283447265625,1.098499586072564,-1.6339587541654703,14.930952331352232,-0.5690675973892212,-2.7825748920440674,-0.762403130531311,jumping
1783090676387328300,0.884328369140625,1.9518742186166345,-1.2150795543611048,14.462273327851294,-0.5760133862495422,-2.774005651473999,-0.6918338537216187,jumping
1783090676397372200,0.8943720703125,2.7050638450950384,-1.2630913055971265,13.55370419296026,-0.4685637354850769,-2.5069141387939453,-0.6409184336662292,jumping
1783090676407417300,0.904417236328125,3.4650524840638037,-1.407834415313601,12.545788548654317,-0.3169459998607635,-2.0133609771728516,-0.5986244678497314,jumping
1783090676417461200,0.914461181640625,3.891645911507308,-1.638732252177596,11.55152850473523,-0.1754118502140045,-1.454878807067871,-0.5652175545692444,jumping
1783090676427505200,0.924505126953125,3.7462405384898183,-1.76319566719234,10.201875644755363,-0.0336997173726558,-0.7994956970214844,-0.497629165649414,jumping
1783090676437550300,0.93455029296875,3.389892613661289,-1.6175883418619632,8.531668057861923,0.1067408248782157,-0.0773160085082054,-0.337798148393631,jumping
1783090676447594200,0.94459423828125,2.9070190805912017,-1.5761884099811314,6.904614553040266,0.1963314116001129,0.6365422010421753,-0.116852730512619,jumping
1783090676457639200,0.95463916015625,2.2911142106473443,-1.8250915668740868,5.7249429966688155,0.2349119782447815,1.307095289230347,0.0733531713485717,jumping
1783090676467683300,0.964683349609375,1.8269855639271435,-2.3902760111451147,5.27278199724853,0.155407041311264,1.8898900747299192,0.1845417618751526,jumping
1783090676477728300,0.974728271484375,1.621730848494172,-2.8024451919168234,5.622179956808686,-0.0515722148120403,2.351897716522217,0.2796206474304199,jumping
1783090676487772200,0.984772216796875,1.572093834143877,-3.073786098328233,6.551037846490741,-0.2816291153430938,2.6347615718841553,0.3848810195922851,jumping
1783090676497817300,0.9948173828125,1.1561415546368807,-3.7342514100104567,7.684263878029585,-0.4504252970218658,2.689046859741211,0.4307185411453247,jumping
1783090676507861200,1.004861328125,0.8356917494025081,-4.22825687020868,9.070795393073558,-0.5500044226646423,2.417285919189453,0.4207178354263305,jumping
1783090676517906200,1.01490625,0.5839545381274074,-4.494125774949789,9.96422307293415,-0.546227216720581,1.8933507204055784,0.3872928023338318,jumping
1783090676527950300,1.024950439453125,0.3877525323957204,-4.535757177498937,10.355922881650924,-0.4437354505062103,1.2655916213989258,0.3441948890686035,jumping
1783090676537995300,1.034995361328125,0.4501826850846409,-4.033102839159965,10.435060131251811,-0.2978416979312897,0.6271564364433289,0.3298860490322113,jumping
1783090676548039200,1.0450390625,0.6510106701165437,-3.3703520468890664,10.115480971372127,-0.1971731185913086,0.0439923405647277,0.3591344952583313,jumping
1783090676558084400,1.05508447265625,0.7981298613145947,-2.6946739685058594,9.624965399116276,-0.1973297744989395,-0.5017610788345337,0.4493715465068817,jumping
1783090676568128300,1.065128173828125,0.6420451272420585,-2.387155248776078,8.937437892985344,-0.2532036900520324,-0.9456926584243774,0.5566495060920715,jumping
1783090676578172200,1.075172119140625,0.3589845569424331,-2.314989591753483,8.386953881978988,-0.308646559715271,-1.20567786693573,0.6201948523521423,jumping
1783090676588217300,1.08521728515625,0.5114303499907255,-1.998430364216864,8.289479011654853,-0.3458565175533294,-1.3488686084747314,0.6847637295722961,jumping
1783090676598261200,1.09526123046875,0.8494372930951416,-1.5753203949749468,8.236197503322362,-0.3584641516208648,-1.3354138135910034,0.8059123158454895,jumping
1783090676608306200,1.10530615234375,0.8460496234182268,-1.5742299693897366,8.375568564611672,-0.377059668302536,-1.234887957572937,0.9229936599731444,jumping
1783090676618350300,1.115350341796875,0.2040190361581742,-1.6678107548847794,8.15511204226315,-0.3654583692550659,-1.0467536449432373,0.9984049201011658,jumping
1783090676628395300,1.125395263671875,0.6716317986670881,-0.9696069564387202,7.865996994230151,-0.3352512121200561,-0.8456348776817322,1.1135103702545166,jumping
1783090676638439200,1.135439208984375,1.0122606877729297,-0.3601671908557415,7.306199795955419,-0.2815539240837097,-0.6139382719993591,1.2030493021011353,jumping
1783090676648484400,1.145484375,1.0264933573953807,0.1019946858361363,5.96372954095602,-0.2615213394165039,-0.3360552787780761,1.235903024673462,jumping
1783090676658528300,1.1555283203125,0.3531451101992279,1.2995362454190849,3.4268151078671214,-0.3126839697360992,0.1264386922121048,1.2332371473312378,jumping
1783090676668573200,1.1655732421875,3.2381679744943974,3.071097882157564,1.8248235635876655,-0.5731174349784851,0.3334603011608124,1.357604742050171,jumping
1783090676678617300,1.175617431640625,5.121099735918641,3.520481525819003,-0.4255138155132532,-0.8598073124885559,0.4206987619400024,1.287078857421875,jumping
1783090676688662300,1.185662353515625,0.2345606702204793,3.2152544241577385,-6.301182211178541,-1.0071041584014893,1.2144954204559326,1.0946316719055176,jumping
1783090676698706200,1.1957060546875,-5.362903582200408,2.9004300575897095,-11.285160710561277,-0.8758221864700317,2.634525775909424,1.127825140953064,jumping
1783090676708751000,1.205751220703125,-8.475877781578898,3.4418864202708006,-14.611635037279129,-0.2603214383125305,4.259899139404297,1.3000813722610474,jumping
1783090676718795300,1.215795166015625,-5.332650482755899,3.456527232302725,-15.36162455254197,0.2965340316295624,5.533216953277588,1.5607383251190186,jumping
1783090676728839200,1.225839111328125,2.7264050315484405,-2.6593261762708424,-11.193404802405832,0.2161896526813507,5.605534076690674,1.185605764389038,jumping
1783090676738884000,1.235884033203125,4.946244104272127,-4.789971884803474,-12.533778961908816,0.2497733533382415,5.099278450012207,0.4309780597686767,jumping
1783090676748928300,1.24592822265625,5.1497699500858785,-0.4548696738570928,-15.433993038660288,0.6037090420722961,4.100790500640869,0.1894291043281555,jumping
1783090676758973200,1.25597314453125,4.806313071012497,2.0971350685968995,-15.038782591474057,0.9720683693885804,2.7680327892303467,0.1880406737327575,jumping
1783090676769017300,1.266017333984375,2.5726100158482788,3.132542238679528,-12.88081545303464,1.1115238666534424,1.394160509109497,-0.0339026525616645,jumping
1783090676779062300,1.276062255859375,-0.9079343441188334,3.0833368937447667,-10.87439964302182,1.13394296169281,0.0379302650690078,-0.4312387704849243,jumping
1783090676789106200,1.286106201171875,-2.90028041998595,1.433710322587192,-9.402067328834534,0.9885327219963074,-1.5351433753967283,-0.9193562269210817,jumping
1783090676799151000,1.296151123046875,-2.1061771838389336,-0.3704232119321823,-9.07289967187643,0.7626198530197144,-3.2409958839416504,-1.3797045946121216,jumping
1783090676809195300,1.3061953125,0.1210524375274777,1.2238161107853054,-12.464478046667574,0.515114426612854,-4.416871547698975,-1.641197681427002,jumping
1783090676819240400,1.316240478515625,3.335732568928599,4.464477655661105,-17.124851199394463,0.3608784079551697,-4.859593391418457,-1.515404224395752,jumping
1783090676829284000,1.3262841796875,6.486372774356603,6.499190170353651,-20.199629231369496,0.4096358120441437,-4.855018138885498,-1.1845256090164185,jumping
1783090676839329300,1.336329345703125,7.843603376114368,7.826120326393842,-27.13664149466753,0.3070331811904907,-3.444434404373169,-0.7631562352180481,jumping
1783090676849373700,1.346373779296875,7.63949359293282,6.793646579414606,-26.352171033132073,0.3130844235420227,-1.9046987295150757,-0.2120654433965683,jumping
1783090676859419000,1.3564189453125,5.6343362585484975,5.354125816982984,-20.55116303391457,0.1983371526002884,-0.6599529981613159,0.134521335363388,jumping
1783090676869463000,1.366463134765625,2.73567496419698,4.03511856289655,-14.758995343756675,0.029428033158183,-0.0931465774774551,0.3876497447490692,jumping
1783090676879507000,1.3765068359375,-0.3527405845189467,3.2277325051978227,-10.288101975834367,-0.1205882653594017,0.2910556197166443,0.4723398089408874,jumping
1783090676889552000,1.3865517578125,-1.8403155856214464,3.0471614185139537,-7.414853062897921,-0.3185362517833709,0.6262631416320801,0.4062105715274811,jumping
1783090676899596000,1.396595947265625,-1.2713411014176903,3.326305692152679,-5.165803385519981,-0.5152124762535095,0.8180775046348572,0.3306453227996826,jumping
1783090676909640700,1.406640625,0.316526055919379,4.143832035593689,-3.5614322526276108,-0.5224999189376831,0.6429099440574646,0.3271885514259338,jumping
1783090676919684900,1.416684814453125,1.0955737617537378,4.729246197944879,-3.0208611483484504,-0.2518738508224487,0.2535103559494018,0.4101520478725433,jumping
1783090676929730000,1.42672998046875,1.123465904220566,4.49668919569701,-1.725869268360734,0.034068688750267,-0.2478624731302261,0.504127562046051,jumping
1783090676939773700,1.436773681640625,0.6890009396843612,3.500769401872158,0.4108353018194436,0.2016221731901168,-0.7433580756187439,0.5902197360992432,jumping
1783090676949819000,1.44681884765625,0.2279977132420055,2.4767229992374777,2.7479806112796066,0.2264183461666107,-1.134108543395996,0.6323682069778442,jumping
1783090676959863000,1.456863037109375,-0.5059366479452699,-0.3603092296749353,5.489302349191904,0.1641799360513687,-1.5089391469955444,0.4893746972084045,jumping
1783090676969908000,1.466907958984375,-0.7901018184859305,-2.0234411790937186,7.495276845178008,0.1031035408377647,-1.6663846969604492,0.2323996275663375,jumping
1783090676979951900,1.476951904296875,-0.1277441171858459,-2.456109542536735,9.297851167556644,0.0121507244184613,-1.6950925588607788,-0.0167706124484539,jumping
1783090676989996800,1.486996826171875,0.5216875766435638,-2.2182392363116143,11.050285786759853,-0.1185606867074966,-1.6915520429611206,-0.1763435006141662,jumping
1783090677000041000,1.497041015625,0.7739210835356265,-1.7453817780822514,12.792509393072129,-0.3168361186981201,-1.7521189451217651,-0.2506250441074371,jumping
1783090677010084900,1.5070849609375,0.6898617212321609,-1.809393062482774,13.853043697887658,-0.5311138033866882,-1.8762177228927612,-0.2667198777198791,jumping
1783090677020129800,1.5171298828125,0.3969201737135648,-2.004929370847344,13.9362924744606,-0.646970808506012,-1.9999492168426511,-0.2673011124134063,jumping
1783090677030174000,1.527174072265625,0.084453914579004,-2.184636241917312,13.3128636387527,-0.6417720317840576,-2.034519672393799,-0.2582069635391235,jumping
1783090677040219000,1.537218994140625,0.2646351251624524,-2.4578566784650087,12.150706696283816,-0.5739085674285889,-1.971330642700195,-0.2544638514518738,jumping
1783090677050263000,1.547262939453125,0.8339796117223799,-2.288648112794757,10.588058735877274,-0.3835678994655609,-1.8122423887252808,-0.2066787481307983,jumping
1783090677060308000,1.557307861328125,1.1027053671993314,-2.156845148672163,9.368549674636125,-0.0278321783989667,-1.5570440292358398,-0.131528615951538,jumping
1783090677070352000,1.567351806640625,1.5674585755586623,-2.617190915852785,9.01579246777594,0.3430931568145752,-1.305762529373169,-0.0508569404482841,jumping
1783090677080396800,1.577396728515625,1.980598208797723,-3.234210761301219,8.754096757066248,0.5803897380828857,-0.9969521164894104,-0.0369448065757751,jumping
1783090677090441000,1.58744091796875,2.177112568414211,-3.418418158660829,8.129627472394704,0.5804334282875061,-0.4857247769832611,-0.1060213446617126,jumping
1783090677100486000,1.59748583984375,2.207470881798863,-3.1872625476434826,7.8363582272917025,0.3665504455566406,0.1513056308031082,-0.1893230974674224,jumping
1783090677110529800,1.60752978515625,1.886905048969388,-3.031663989652693,8.165324808719754,0.0995459035038948,0.7191832065582275,-0.2604454457759857,jumping
1783090677120575000,1.617574951171875,1.300385701855272,-3.169971513363719,8.342774548512697,-0.1138020455837249,1.1577821969985962,-0.3608419299125671,jumping
1783090677130619000,1.627618896484375,0.9393854211762548,-3.2914231793418525,8.59782658342421,-0.247471421957016,1.4409193992614746,-0.4553031623363495,jumping
1783090677140663800,1.637663818359375,0.8923026213534175,-3.5208106116428968,8.87158974854648,-0.3211151659488678,1.5516316890716553,-0.5310735702514648,jumping
1783090677150708000,1.6477080078125,0.9139959822453558,-4.029218691202998,9.158084969469904,-0.3940674066543579,1.4720172882080078,-0.6176319122314453,jumping
1783090677160751900,1.657751953125,1.0394906400039792,-4.423106073091924,9.62302127931118,-0.4804681539535522,1.1970683336257937,-0.6995314955711365,jumping
1783090677170796800,1.667796875,1.2897513489857315,-4.574746541106701,9.853809226059914,-0.5394420027732849,0.8139865398406982,-0.7528138756752014,jumping
1783090677180841000,1.677841064453125,1.3599889605551958,-4.722526826561987,9.65101578617394,-0.5273957252502441,0.4047971963882446,-0.7834675908088684,jumping
1783090677190886100,1.68788623046875,1.4100012379586695,-4.734011512650549,9.182267224568127,-0.4253695011138916,0.004808522760868,-0.8013110160827637,jumping
1783090677200929800,1.6979296875,1.5517448735982178,-4.619731637997925,8.54398276503384,-0.2527910768985748,-0.3446403741836548,-0.8144721984863281,jumping
1783090677210975000,1.70797509765625,2.025703424937278,-4.348300130693614,8.032249632704257,-0.0663886964321136,-0.6138419508934021,-0.8138306736946106,jumping
1783090677221019000,1.718018798828125,2.678581496360898,-3.812251472274959,7.778039309313892,0.0818244516849517,-0.8232654333114624,-0.7733175158500671,jumping
1783090677231063800,1.728063720703125,3.1608933038949965,-3.182938546964526,7.65545863930583,0.1621403247117996,-0.9777204990386964,-0.6747925877571106,jumping
1783090677241108000,1.73810791015625,3.386372622841596,-2.8664512156203386,7.705754994347691,0.1757664382457733,-1.0911247730255127,-0.5433040857315063,jumping
1783090677251153000,1.74815283203125,3.1213708563238383,-2.713468393085897,7.96473150922656,0.1481553167104721,-1.1570649147033691,-0.4126661717891693,jumping
1783090677261196800,1.75819677734375,2.156374462420493,-2.335299389332533,8.506392746829986,0.101732812821865,-1.199789047241211,-0.2458918541669845,jumping
1783090677271242000,1.768241943359375,1.2653900840587913,-1.8124565417066216,8.682413915124535,0.0800011530518531,-1.0911792516708374,-0.0835860297083854,jumping
1783090677281286000,1.778285888671875,1.4784401295430958,-0.3786959502369165,8.70193110102117,0.0573842152953147,-0.9607104659080504,0.1597824543714523,jumping
1783090677291330800,1.788330810546875,2.4068787708997723,1.6518179437220095,8.166800141969322,0.0533737614750862,-0.883705735206604,0.5161317586898804,jumping
1783090677301375000,1.798375,2.6165558328196403,3.753279935607314,6.268616743138432,0.0074636116623878,-0.6608321070671082,0.9604016542434692,jumping
1783090677311419100,1.808419189453125,5.452314973056316,5.542607238399982,4.5872254989296195,-0.1392635256052017,-0.5273816585540771,1.448394775390625,jumping
1783090677321463800,1.8184638671875,5.312020367181301,6.22967998650074,0.7861398560523987,-0.4181908667087555,-0.3051410913467407,1.8893473148345947,jumping
1783090677331508000,1.828508056640625,-0.5450910659216344,5.852461707600951,-5.050337515953183,-0.6815804839134216,0.3567622900009155,2.313866138458252,jumping
1783090677341553000,1.838552978515625,-6.595448066103458,4.324932406848669,-12.164585584032537,-0.6643683314323425,1.6882059574127195,2.473179817199707,jumping
1783090677351596800,1.8485966796875,-6.017144904801249,3.587362228175998,-18.02491086461544,-0.4568300545215606,3.2533795833587646,2.3792190551757812,jumping
1783090677361642000,1.85864208984375,-2.304911119201034,7.584532168689369,-21.13870807081461,-0.55048668384552,4.622276782989502,2.7736480236053467,jumping
1783090677371686000,1.868685791015625,0.0567862285178154,6.568517973601818,-21.737380066406725,-0.7159057259559631,5.750819683074951,3.021199941635132,jumping
1783090677381730800,1.878730712890625,-1.8477568415381016,-0.2405541384816169,-18.171766144180296,-0.3796009421348572,6.0429582595825195,2.3944263458251953,jumping
1783090677391775000,1.88877490234375,-3.9038445910841224,-1.750550412891805,-15.628585051912069,0.303337961435318,5.671870708465576,1.588965892791748,jumping
1783090677401820000,1.89881982421875,-2.209385629379004,0.5184422745794057,-13.424821792459488,0.7626885771751404,4.584349155426025,0.9738577008247375,jumping
1783090677411863800,1.90886376953125,-1.2279008958809077,1.310871586164832,-12.148380299162865,0.9238367676734924,3.072154998779297,0.1548760533332824,jumping
1783090677421908700,1.91890869140625,-2.3506977417334913,-0.5143097048193216,-12.672725660306217,0.9252424836158752,1.443139910697937,-0.8366383910179138,jumping
1783090677431953000,1.928952880859375,-4.117767620010674,-2.150409270405769,-13.684314440166949,0.7923981547355652,-0.1604284942150116,-1.8073304891586304,jumping
1783090677441996800,1.938996826171875,-3.5793969483852384,-1.2554632949367164,-13.817503597950935,0.5081617832183838,-1.8275880813598633,-2.448891878128052,jumping
1783090677452042000,1.9490419921875,-1.870041300190985,1.585700626952946,-16.786458617973327,0.2008220702409744,-2.9930334091186523,-2.602781295776367,jumping
1783090677462086000,1.9590859375,0.2622501297220587,6.6511471569716925,-21.866984935963153,-0.0815567076206207,-3.19964337348938,-2.2837674617767334,jumping
1783090677472131000,1.969131103515625,2.7865023573756216,10.014206708765029,-24.42948681477308,-0.0817769542336463,-2.724458932876587,-1.5986002683639526,jumping
1783090677482175000,1.979175048828125,3.525695168814063,11.482408791279791,-24.153870715260503,0.2502637505531311,-1.891573905944824,-0.6996551156044006,jumping
1783090677492220000,1.989219970703125,2.254391769058257,9.340963164052368,-21.15763722769022,0.5042949914932251,-1.0710395574569702,0.0305921323597431,jumping
1783090677502264000,1.99926416015625,-0.0831197798984125,4.9485611490428445,-17.58021830137968,0.479931890964508,-0.4740244448184967,0.3573543131351471,jumping
1783090677512308700,2.009308837890625,-1.2067900841172785,2.090796805486083,-13.903641081702707,0.2912586629390716,-0.2216539829969406,0.3902875185012817,jumping
1783090677522353000,2.019352783203125,-0.8033061679739505,0.7485752645507454,-10.93969658331871,0.2034987360239029,-0.1454828381538391,0.2833344638347626,jumping
1783090677532398000,2.029398193359375,0.0867551133266184,-0.060666650147736,-8.398498773822189,0.1803436130285263,-0.3330410122871399,0.097498282790184,jumping
1783090677542441700,2.039441650390625,0.5336428028533234,-0.5699664178505539,-6.581313157767057,0.1399927139282226,-0.5372206568717957,-0.1256604343652725,jumping
1783090677552487000,2.04948681640625,0.7997915839817374,-0.735013772188127,-4.211087416481972,0.0370636694133281,-0.7860203385353088,-0.3318343460559845,jumping
1783090677562531000,2.059531005859375,0.380156232047826,-0.5274900889098644,-1.7764894485294818,-0.1312310546636581,-1.165887475013733,-0.5296764373779297,jumping
1783090677572575000,2.069574951171875,-0.4593916447935625,0.1778442920684814,0.5821966616094112,-0.3334885537624359,-1.6413609981536863,-0.6693632006645203,jumping
1783090677582620000,2.079619873046875,-0.6487601877760142,0.5789791608676313,2.980624415028095,-0.3884530067443847,-2.0239434242248535,-0.7966485619544983,jumping
1783090677592664000,2.0896640625,-0.2711216376375406,0.6201417768612504,4.860556702375412,-0.273777037858963,-2.250991106033325,-0.91458398103714,jumping
1783090677602708700,2.099708740234375,0.4679385603971779,0.6460922106757759,6.380337580958009,0.0036440161056816,-2.2502541542053223,-0.953512728214264,jumping
1783090677612753000,2.1097529296875,0.9275603972174228,0.224093417546153,7.924024820306896,0.3769483566284179,-2.022570848464966,-0.905700147151947,jumping
1783090677622798000,2.119798095703125,1.2896252383880316,-0.4714727258726954,10.173350976538655,0.6807456016540527,-1.6560649871826172,-0.7491517066955566,jumping
1783090677632841700,2.129841796875,1.5292681072436272,-1.069008118650317,12.93715517989397,0.836946427822113,-1.298953890800476,-0.5290299654006958,jumping
1783090677642887000,2.139886962890625,2.044558639793843,-1.4398109775498509,15.879049174511431,0.8140411376953125,-1.0907763242721558,-0.2631012201309204,jumping
1783090677652931000,2.14993115234375,3.457114969062805,-2.0274977610081435,17.92546498647928,0.6583689451217651,-1.0484634637832642,-0.0346369035542011,jumping
1783090677662975700,2.159975830078125,4.757558392454683,-1.64933664830029,18.619587068569658,0.4311546683311462,-1.201494812965393,0.162552535533905,jumping
1783090677673020000,2.17002001953125,4.836844987398385,-0.6599965251266956,17.131693612635136,0.1639578342437744,-1.304600954055786,0.3661253750324249,jumping
1783090677683064800,2.18006494140625,4.502274302352965,-0.6785445737302302,14.562427646517753,-0.1067021638154983,-1.260246515274048,0.5899654030799866,jumping
1783090677693108700,2.190108642578125,3.5805233220666643,-1.269272624580562,11.537526867389678,-0.3062202930450439,-1.0296874046325684,0.7709141969680786,jumping
1783090677703153000,2.20015283203125,2.253852109223604,-1.867364482197165,8.257939379531145,-0.4069611132144928,-0.5838760137557983,0.855187177658081,jumping
1783090677713197800,2.21019775390625,1.4484722767807543,-2.241333696173131,5.669084915846586,-0.348370224237442,0.038380641490221,0.8944725394248962,jumping
1783090677723241700,2.22024169921875,1.3285615566343068,-2.224104036691785,4.1820840248376125,-0.1352725774049759,0.7219722270965576,0.943227231502533,jumping
1783090677733287000,2.230286865234375,1.3625826303102075,-2.253419563025236,3.807415430420637,0.1199634596705436,1.3574533462524414,0.9915164709091188,jumping
1783090677743331000,2.2403310546875,1.304036771708727,-2.701418474330008,4.510636764767765,0.3304529190063476,1.7932889461517334,0.9808489680290222,jumping
1783090677753376000,2.2503759765625,1.2472484242990611,-3.295739873497188,5.894790444764495,0.4276311099529266,1.964940309524536,0.8978509902954102,jumping
1783090677763420000,2.260419921875,0.95667353284657,-4.098707530231773,7.416947404828667,0.4392902255058288,1.9221500158309937,0.7407916784286499,jumping
1783090677773464800,2.27046484375,0.9107957248993216,-4.52004639814794,8.750909359201788,0.3499585092067718,1.729430913925171,0.5470134019851685,jumping
1783090677783509000,2.280509033203125,0.6170687991566955,-4.961950207448005,10.242142188692092,0.1740880906581878,1.3224818706512451,0.3038257956504822,jumping
1783090677793554000,2.290553955078125,0.1957386990688741,-5.0861330519556995,11.096479382658003,-0.0295252073556184,0.7915236353874207,0.0807538256049156,jumping
1783090677803597800,2.300597900390625,0.1079419768679887,-4.850880819274485,10.853079791617391,-0.2091219425201416,0.2945707142353058,-0.0873577818274498,jumping
1783090677813643000,2.31064306640625,0.3129069155741483,-4.409064395996928,10.154730447220802,-0.3185735940933227,-0.0805027484893798,-0.1981569975614547,jumping
1783090677823687000,2.32068701171875,0.686280282548815,-4.038123589931428,9.211067202594876,-0.3625451922416687,-0.3636223375797272,-0.265013188123703,jumping
1783090677833730800,2.330730712890625,1.0257125092159955,-3.805324595621228,8.262913076290488,-0.3550851345062256,-0.564886212348938,-0.3015903830528259,jumping
1783090677843776000,2.34077587890625,1.4214432539492845,-3.624372400665283,7.682851673144102,-0.3403480052947998,-0.706165075302124,-0.3120350241661072,jumping
1783090677853820000,2.35081982421875,1.7819776706822217,-3.498739649610221,7.336721775469184,-0.3407551944255829,-0.8022796511650085,-0.2969460785388946,jumping
1783090677863864600,2.360864501953125,1.9757390783287585,-3.1139673020690677,7.007771560654044,-0.3151513934135437,-0.8368743658065796,-0.2446872740983963,jumping
1783090677873908700,2.37090869140625,2.2636114328242836,-2.729372649182379,7.105420618501305,-0.2307353317737579,-0.8126657009124756,-0.1628251671791076,jumping
1783090677883954000,2.380953857421875,2.3647787279255685,-2.628404676045477,7.639591208088397,-0.1277747154235839,-0.7495062947273254,-0.0684887021780014,jumping
1783090677893997600,2.39099755859375,2.3258904866047203,-2.6995395287156105,8.466323186770081,-0.0662240013480186,-0.6936148405075073,0.0085770534351468,jumping
1783090677904042800,2.401042724609375,1.9904262137204407,-2.700164967137575,9.36747707696855,-0.0698042288422584,-0.7049607634544373,0.064835786819458,jumping
1783090677914087000,2.4110869140625,1.5610671209558844,-2.415990298116207,9.389458022630214,-0.0534798540174961,-0.6763826608657837,0.1223025396466255,jumping
1783090677924131600,2.421131591796875,1.9682611436635256,-1.3267699970424174,8.472153792619705,0.0615697503089904,-0.5893164277076721,0.2087189853191375,jumping
1783090677934175700,2.43117578125,2.3362094899147747,0.5275009025648236,7.608369555872678,0.2345695048570633,-0.5582322478294373,0.3994481563568115,jumping
1783090677944220700,2.441220703125,2.1621531919524073,2.225515657055378,6.740032478126883,0.2885990738868713,-0.5404195785522461,0.6877447366714478,jumping
1783090677954264600,2.4512646484375,3.075346771773696,4.295929307465255,5.227826418712735,0.0842757597565651,-0.5140625238418579,1.0059751272201538,jumping
1783090677964308700,2.461308837890625,5.656519448783993,6.582493891984224,3.3317952294796704,-0.2530357539653778,-0.4909925460815429,1.3138140439987185,jumping
1783090677974353700,2.471353759765625,2.766937825205922,5.977742868739366,-0.6901578546345234,-0.5246930718421936,-0.1468806862831115,1.4429587125778198,jumping
1783090677984397600,2.4813974609375,-4.599889165669679,3.009157266551256,-6.390016678929329,-0.6295170187950134,0.9011121988296508,1.3971258401870728,jumping
1783090677994442800,2.49144287109375,-6.169424547502398,-0.5110945421651005,-10.193259792101385,-0.3701647520065307,1.920394778251648,1.0768601894378662,jumping
1783090678004487000,2.50148681640625,-3.381009634503722,-0.5264335655942559,-13.470112886559962,0.1882278770208358,2.3830060958862305,0.5744550824165344,jumping
1783090678014531800,2.51153173828125,-4.720293660682439,2.5003645715877414,-20.83709477573633,0.646847665309906,3.19551420211792,0.400694191455841,jumping
1783090678024575700,2.52157568359375,-2.731651115508378,0.5837178798273206,-23.528750273203848,0.632430911064148,3.905047655105591,-0.0509255789220333,jumping
1783090678034620700,2.53162060546875,0.0440307553084567,2.148295931513607,-20.367417408847807,0.3886094987392425,3.497292995452881,-0.7040666341781616,jumping
1783090678044664800,2.541664794921875,-0.756812420085445,5.8629988837063305,-19.846942751657963,0.56776362657547,2.7570290565490723,-1.0913000106811523,jumping
1783090678054709800,2.551709716796875,-0.4592546840082854,7.132515546175837,-16.19669473598003,0.9998700022697448,1.5721756219863892,-1.2496111392974854,jumping
1783090678064753700,2.561753662109375,-2.009856890377402,5.893432600414752,-15.078385118544102,0.9320828914642334,0.5974779725074768,-1.4806684255599976,jumping
1783090678074798800,2.571798828125,-4.279244130124152,2.8172996466994285,-18.008410980713368,0.3126798570156097,0.1824349761009216,-1.6511461734771729,jumping
1783090678084842800,2.5818427734375,-2.946036793510616,2.196461119745672,-19.751336013293265,-0.4498825669288635,-0.2488075494766235,-1.524613380432129,jumping
1783090678094886700,2.59188671875,-0.7505489027112722,3.718405606102943,-21.903550287294387,-0.7003015279769897,-0.7906979322433472,-1.2567873001098633,jumping
1783090678104931800,2.601931884765625,0.0205147820992395,6.271501358664035,-24.912458547520636,-0.2902667224407196,-1.1153613328933716,-0.748392641544342,jumping
1783090678114975700,2.611975830078125,0.5403596534855664,7.907835317528248,-24.83756960301399,0.2349722683429718,-1.3439295291900637,-0.1321960389614105,jumping
1783090678125020700,2.622020751953125,1.3660194728910922,8.366872047936916,-22.280728234183787,0.3075097799301147,-1.1310731172561646,0.3895224332809448,jumping
1783090678135064800,2.63206494140625,2.5898136641055345,7.974399501281976,-18.85677553001046,0.0934009477496147,-0.7604507803916931,0.6800780892372131,jumping
1783090678145109800,2.64210986328125,0.7421803758818656,7.734468463134765,-15.252922185760736,-0.048740915954113,-0.5280743837356567,0.7545530796051025,jumping
1783090678155153700,2.652153564453125,-1.6006825075075028,5.758250222986936,-10.190807138252255,-0.0300793461501598,-0.6562855839729309,0.7361242771148682,jumping
1783090678165198800,2.66219873046875,-2.2639526474773883,3.0800860752552746,-6.3737289764732115,0.0412268936634063,-1.0470150709152222,0.5156688690185547,jumping
1783090678175242800,2.67224267578125,-1.6744257891103624,2.0064564342841504,-4.611799968215823,0.054515540599823,-1.4391758441925049,0.2328866869211197,jumping
1783090678185287700,2.68228759765625,0.0542343520779162,2.0582178934425115,-3.807234228634834,-0.0150814037770032,-1.847722053527832,0.0926958173513412,jumping
1783090678195331800,2.692331787109375,0.9653443305581808,1.9697516744822263,-4.194904343444109,-0.0501869283616542,-2.0959808826446533,-0.0116771943867206,jumping
1783090678205376500,2.70237646484375,0.9586517010517418,1.9458453137159344,-3.119599170476198,-0.0687127262353897,-2.0552217960357666,-0.1026629209518432,jumping
1783090678215420700,2.712420654296875,1.3338612704776227,1.7576286807149648,0.7866285163521766,-0.0970322489738464,-1.9551291465759275,-0.1373628377914428,jumping
1783090678225464800,2.72246484375,1.3562152872353792,1.007364147903025,5.356476179501414,-0.1613868176937103,-1.9755866527557373,-0.2048956751823425,jumping
1783090678235509800,2.732509765625,0.8604907481595874,-0.2525453127875924,8.86879164226055,-0.269742876291275,-1.9994244575500488,-0.315889298915863,jumping
1783090678245553700,2.7425537109375,1.0847592300117015,-0.9770926360189914,11.313009671473502,-0.2806667685508728,-1.880709528923035,-0.3695866763591766,jumping
1783090678255598800,2.752598876953125,1.8896919032089412,-1.4601500012233852,13.033823410010337,-0.1062683537602424,-1.72191321849823,-0.338325947523117,jumping
1783090678265642800,2.762642822265625,2.926939002069831,-1.826165625846386,15.0759593527019,0.1586810648441314,-1.7367130517959597,-0.2926641404628753,jumping
1783090678275687700,2.772687744140625,3.970856518605351,-1.726408197543025,16.261486649364233,0.3979138731956482,-1.8258713483810425,-0.1895880699157714,jumping
1783090678285731800,2.78273193359375,4.9226697519391776,-1.4111127063319089,17.209242131739853,0.4940683841705322,-2.018144130706787,-0.018736895173788,jumping
1783090678295776800,2.79277685546875,5.5104702249050135,-1.7550524004861712,17.055752528727055,0.4090781211853027,-2.1598451137542725,0.1496896743774414,jumping
1783090678305820700,2.802820556640625,5.586806445610523,-1.9482123351082208,15.095876351571082,0.1547804623842239,-2.1271727085113525,0.2817598283290863,jumping
1783090678315865900,2.812865966796875,5.0895279550909995,-1.8587687955483791,12.19202771770954,-0.1108011454343795,-1.7869237661361694,0.3992835283279419,jumping
1783090678325909800,2.82290966796875,4.471634541678428,-2.1569684827908873,9.599199674218893,-0.34306600689888,-1.2501977682113647,0.423379123210907,jumping
1783090678335953700,2.83295361328125,3.200524180276692,-2.523390642388165,7.25118108856678,-0.5240530967712402,-0.4749545156955719,0.394614577293396,jumping
1783090678345998800,2.842998779296875,2.055463918559253,-2.8103274695992466,5.258489268001914,-0.5509737133979797,0.5078381896018982,0.3430372476577759,jumping
1783090678356042500,2.85304248046875,1.3910066146314144,-2.9206822797626257,3.936927360996603,-0.3781175017356872,1.5487455129623413,0.2794292271137237,jumping
1783090678366087700,2.863087646484375,1.2880910145580768,-3.4589529981449245,3.407372740772366,-0.0836900547146797,2.4845893383026123,0.178743228316307,jumping
1783090678376131800,2.8731318359375,1.3524416139155626,-4.130566603568196,3.8978088180512183,0.2187427729368209,3.19142484664917,0.0337271839380264,jumping
1783090678386176800,2.8831767578125,1.4718249491870403,-4.684260516531765,5.156790642502903,0.4695157408714294,3.5973289012908936,-0.1608443260192871,jumping
1783090678396220700,2.893220703125,1.4423483870729803,-4.940566058635711,6.797698485153913,0.5525336861610413,3.6925065517425537,-0.3756293356418609,jumping
1783090678406265900,2.903265869140625,1.111763995184749,-5.257681458750367,8.286229654470086,0.4387326240539551,3.558091163635254,-0.590221643447876,jumping
1783090678416309800,2.913309814453125,1.0112436196848749,-5.87254938686192,9.95864556506276,0.1623998582363128,3.141432285308838,-0.8146536946296692,jumping
1783090678426354700,2.923354736328125,1.0085523347742855,-6.0925184179544445,10.850285776984691,-0.1544644236564636,2.5242066383361816,-1.0324201583862305,jumping
1783090678436398800,2.93339892578125,0.6358351666860282,-5.625033592674136,10.60643844217658,-0.3564262986183166,1.8827584981918335,-1.17323899269104,jumping
1783090678446443800,2.94344384765625,0.4690942332383245,-5.137108621433377,9.911195247101784,-0.3919355571269989,1.2718852758407593,-1.235813856124878,jumping
1783090678456487700,2.95348779296875,0.5958326805129647,-4.616372390697896,8.799263932526111,-0.2752861678600311,0.731620728969574,-1.2217795848846436,jumping
1783090678466531800,2.96353173828125,0.8774033775810152,-3.923367914460599,7.5345876958251,-0.0255361888557672,0.3606836497783661,-1.1285488605499268,jumping
1783090678476576800,2.97357666015625,1.2366608331806956,-3.316707842724025,6.97055329837203,0.3012608587741852,0.1178164035081863,-0.9352744221687316,jumping
1783090678486620700,2.98362060546875,1.745486992022395,-2.983050473131239,7.008173711714148,0.6161673665046692,-0.0363392084836959,-0.6915582418441772,jumping
1783090678496665600,2.99366552734375,2.439422903890907,-2.602738612130284,7.5170596379190675,0.8321393728256226,-0.1735074520111084,-0.4242775440216064,jumping
1783090678506709800,3.003709716796875,3.0131489665359257,-2.378715044949949,8.181866778197884,0.873176097869873,-0.2763500213623047,-0.1894740164279937,jumping
1783090678516754700,3.013754638671875,3.4223388392359015,-2.206826154154539,9.04466200390756,0.7157300114631653,-0.3257234394550323,0.0060933409258723,jumping
1783090678526798800,3.023798828125,3.338110988497734,-1.6965198397576808,9.740790165123345,0.3842517435550689,-0.3293167352676391,0.2373538464307785,jumping
1783090678536843800,3.03384375,2.4521160889863967,-1.363716748906672,10.061341384905576,0.0423079878091812,-0.3170339465141296,0.474452942609787,jumping
1783090678546887700,3.0438876953125,0.7416668003365398,-1.4327306639000772,9.427906118968128,-0.1582058519124984,-0.2545764446258545,0.6667128801345825,jumping
1783090678556932600,3.0539326171875,-0.8650280993282794,-1.592953959082067,8.716500309121608,-0.2405822277069091,-0.321707546710968,0.7640050649642944,jumping
1783090678566976800,3.063976806640625,-1.5854801160700618,-1.9071356438323857,7.204632687881588,-0.1929456144571304,-0.3856975734233856,0.6976401209831238,jumping
1783090678577022000,3.07402197265625,-0.5248131247855723,-0.7769850742161274,5.365142885559797,-0.0519408136606216,-0.4274745881557464,0.6899553537368774,jumping
1783090678587065600,3.084065673828125,1.9903512487880883,-0.023810499176383,4.086967115816473,0.1199322789907455,-0.3706623911857605,0.6365074515342712,jumping
1783090678597109800,3.09410986328125,3.763635909926891,2.3840248417958616,2.3502345081359146,0.1760648041963577,0.0042571630328893,0.6850752830505371,jumping
1783090678607155000,3.104155029296875,3.48386912047565,6.858728415656089,0.1796755991488695,0.0796324387192726,0.8733029365539551,1.2628010511398315,jumping
1783090678617198600,3.114198486328125,1.0018442154377698,6.470941396468877,-1.3915747699081895,-0.1611700654029846,1.925448656082153,1.7861305475234983,jumping
1783090678627243800,3.124243896484375,0.7500024478096514,6.028423254662751,-5.121525267854333,-0.6450532674789429,2.700321674346924,2.1482632160186768,jumping
1783090678637288000,3.134287841796875,-0.3331620238238945,6.17516396793723,-16.277274585604665,-1.1414532661437988,3.824974536895752,2.3931493759155273,jumping
1783090678647332600,3.14433251953125,2.4844310893967747,1.454493875157833,-22.51815868768692,-1.286707878112793,4.516767501831055,2.199125289916992,jumping
1783090678657376800,3.154376708984375,4.109956946259737,-1.7011840321764349,-19.43388217500448,-1.0203049182891846,3.677103996276855,1.6761630773544312,jumping
1783090678667421700,3.164421630859375,2.11388103621453,-1.6053466999262571,-18.43308483827114,-0.3004491627216339,2.4780139923095703,1.1648147106170654,jumping
1783090678677465600,3.174465576171875,0.6804715962700545,-0.0051198272317647,-15.094627812814712,0.7444881200790405,1.1658737659454346,0.8608964085578918,jumping
1783090678687510800,3.1845107421875,-1.0697687277592718,2.437536651752889,-12.719511961400508,1.3741995096206665,0.3953164219856262,0.4322016835212707,jumping
1783090678697555000,3.194554931640625,-3.457717026609182,2.5021879876226185,-13.305768712055682,1.3816009759902954,0.3490333557128906,-0.1961147189140319,jumping
1783090678707598600,3.2045986328125,-3.1507866281613706,2.4588804685547947,-11.18005899862051,1.0871543884277344,0.0792413800954818,-0.7150511741638184,jumping
1783090678717643800,3.214643798828125,-2.9175264460802075,1.3260291155472397,-11.598969470345974,0.8381034731864929,-0.4592284858226776,-1.2257883548736572,jumping
1783090678727688000,3.22468798828125,-2.391153670762479,-0.0950830067515373,-13.097980532622335,0.5942927002906799,-1.0042238235473633,-1.6562100648880005,jumping
1783090678737732600,3.234732666015625,-1.5104899031460284,0.6255950738310814,-13.625609737741948,0.3448453247547149,-1.5496187210083008,-1.8712915182113647,jumping
1783090678747776800,3.24477685546875,-0.4269370167167857,2.3078999257534742,-16.940123577553035,-0.172311246395111,-1.434539556503296,-1.9650886058807373,jumping
1783090678757821700,3.25482177734375,-0.7166497018493712,4.4150189204871655,-15.122433519107105,0.1742581576108932,-1.395978331565857,-1.7262911796569824,jumping
1783090678767865600,3.264865478515625,-0.4632273870315402,8.182015831279754,-18.91556089645624,0.4653404057025909,-0.6798802614212036,-1.4024162292480469,jumping
1783090678777910800,3.274910888671875,2.778438877907395,9.770078803449868,-21.800711844110488,0.364838570356369,0.3875445425510406,-0.9257140159606934,jumping
1783090678787954700,3.28495458984375,3.477473281958699,9.23250688098669,-22.54629757145643,0.1185956597328186,1.5406237840652466,-0.4575795531272888,jumping
1783090678797999900,3.294999755859375,2.4878344680994746,6.050287880468368,-20.33686561871767,0.0296032056212425,2.2724766731262207,-0.1604700982570648,jumping
1783090678808043800,3.305043701171875,1.1775535413041711,2.923079696293175,-16.3428579416275,0.0640341714024543,2.387266159057617,0.0362816117703914,jumping
1783090678818088700,3.315088623046875,0.8580708275362848,0.5795324108362198,-14.134796108198165,0.2138620167970657,2.1726088523864746,0.0918657854199409,jumping
1783090678828132600,3.325132568359375,1.2221806185379624,-1.075532259722054,-12.570544219726324,0.4243480563163757,1.8422601222991943,-0.029361505061388,jumping
1783090678838176800,3.3351767578125,1.247153731752932,-1.5896140010043978,-9.795115045028924,0.4918195307254791,1.50444233417511,-0.2460519969463348,jumping
1783090678848221700,3.3452216796875,1.2526155042901634,-1.5580477731347082,-5.997409692239761,0.4771983623504638,1.2078795433044434,-0.5084154605865479,jumping
1783090678858265600,3.355265625,1.1300997162118551,0.0519210336342453,-1.8951660968363284,0.4285194873809814,0.6788689494132996,-0.7191241979598999,jumping
1783090678868310800,3.365310791015625,-0.3111651134081185,2.460647770488262,1.373712950003147,0.3127053380012512,-0.0552253052592277,-0.7330517172813416,jumping
1783090678878354400,3.3753544921875,-1.6796059682272373,3.2203853573054073,4.58662928660214,0.2730306386947632,-0.8754327893257141,-0.6463282704353333,jumping
1783090678888399600,3.385399658203125,-2.968793107458949,2.67363468760848,7.309680039286613,0.2985107898712158,-1.5222030878067017,-0.5993308424949646,jumping
1783090678898443800,3.39544384765625,-3.4568273842930792,2.0968246874734757,9.328960007047652,0.2336734980344772,-1.8622368574142456,-0.5457661151885986,jumping
1783090678908488400,3.405488525390625,-2.3612121214851736,1.7659893895640968,11.291910769343376,0.079978659749031,-2.0361437797546387,-0.4370162487030029,jumping
1783090678918532600,3.41553271484375,-0.7530280061759054,1.037431661647558,13.399908300477266,-0.0026610963977873,-2.169639587402344,-0.3128876388072967,jumping
1783090678928577500,3.42557763671875,0.0390668858233839,0.1882382603108882,15.06236804972291,-0.0354482531547546,-2.2691543102264404,-0.1646323800086975,jumping
1783090678938621400,3.435621337890625,0.8765817589998245,-0.3880839563071727,16.220379562950132,-0.0723724514245987,-2.3348498344421387,0.0563122518360614,jumping
1783090678948665600,3.44566552734375,1.3577635395906864,-1.1481310474649071,17.38968637717366,-0.0930693969130516,-2.4241795539855957,0.28292116522789,jumping
1783090678958710800,3.455710693359375,0.82849621187523,-1.6951631644517182,17.316323034799098,-0.1481137424707412,-2.3963024616241455,0.4845059514045715,jumping
1783090678968754400,3.46575439453125,0.3405058107154444,-1.8967413833290336,15.91581326328516,-0.1877911984920501,-2.2688302993774414,0.6569761633872986,jumping
1783090678978799600,3.475799560546875,0.7833502983991056,-2.206147524240613,13.344585641705988,-0.1340107917785644,-2.063295602798462,0.8216202259063721,jumping
1783090678988843800,3.48584375,1.034715899882838,-2.133072935679555,9.66166460596025,0.0586850829422473,-1.5859224796295166,0.8988950848579407,jumping
1783090678998888700,3.495888671875,0.7210978403646499,-1.9300246442496776,6.250617560589313,0.3590920269489288,-0.8354330062866211,0.9384867548942566,jumping
1783090679008932600,3.5059326171875,0.6579082476105541,-1.7730428152069448,4.494090703636408,0.6608089208602905,0.0294998455792665,0.9820139408111572,jumping
1783090679018977500,3.5159775390625,0.5709580592364073,-1.7985905134394764,4.0600224102675915,0.8992531895637512,0.9039767384529114,0.9861953854560852,jumping
1783090679029021400,3.526021484375,0.4157495234765112,-2.223463692961633,4.811063480409979,0.959494650363922,1.6485016345977783,0.9292721748352052,jumping
1783090679039066600,3.536066650390625,0.1041257065154612,-3.3312650681257248,6.65889090296626,0.7130787372589111,2.1663899421691895,0.8270842432975769,jumping
1783090679049110500,3.546110595703125,-0.1797388919097371,-3.8007042423442,8.336492691764235,0.2442435473203659,2.45678973197937,0.7260181307792664,jumping
1783090679059154400,3.556154541015625,-0.522810516258888,-3.976739146903157,8.876597932097315,-0.2122678011655807,2.578313112258911,0.6036008596420288,jumping
1783090679069199600,3.56619970703125,-1.1569941528782248,-4.121129205398261,9.326510275807976,-0.4346882700920105,2.4962103366851807,0.4459530115127563,jumping
1783090679079243800,3.576243896484375,-1.6151308657072485,-3.8695270186796784,10.241611442816255,-0.4208539426326751,2.2226669788360596,0.293581873178482,jumping
1783090679089288700,3.586288818359375,-1.398608906328678,-3.9862838048398497,11.44893439170122,-0.3293124735355377,1.681565523147583,0.163257285952568,jumping
1783090679099332600,3.59633251953125,-1.3234350074008103,-4.2898724916443225,11.724223158955573,-0.342666894197464,1.0235185623168943,0.064761072397232,jumping
1783090679109377500,3.60637744140625,-1.1637233150027693,-4.52145538816303,11.157164445245265,-0.4827713370323181,0.3725013434886932,0.0205735526978969,jumping
1783090679119421700,3.616421630859375,-0.738752593390271,-4.257587594111263,10.012642528188229,-0.5984883308410645,-0.2396677732467651,0.0102375587448477,jumping
1783090679129466600,3.626466552734375,-0.2627695504862815,-3.623841654789448,8.510845050063729,-0.5175447463989258,-0.8117382526397705,-0.0143609344959259,jumping
1783090679139510500,3.636510498046875,0.0564375612106174,-2.9214418659582733,7.436094588369131,-0.3086804449558258,-1.2584295272827148,-0.035414021462202,jumping
1783090679149555700,3.6465556640625,0.426739923242107,-2.490087507723272,7.126478604099154,-0.1078821867704391,-1.50835919380188,-0.0328088477253913,jumping
1783090679159599600,3.656599609375,0.8717698286734521,-2.191143724115193,7.353506906053424,-0.0285383574664592,-1.5823527574539185,-0.0121485739946365,jumping
1783090679169644500,3.66664453125,0.9726076726246624,-1.7441224256709218,7.744220041820406,-0.0509699955582618,-1.5395805835723877,0.0264231022447347,jumping
1783090679179688700,3.676688720703125,1.1318404954645782,-1.2991624436706304,7.61329006114006,-0.1109712794423103,-1.3526383638381958,0.098932184278965,jumping
1783090679189732600,3.686732666015625,0.8332332503344864,-0.0550216299980878,6.851746886205673,-0.1185997352004051,-1.0086036920547483,0.322989672422409,jumping
1783090679199777500,3.696777587890625,-1.033962378101796,0.5076888253748416,6.778527336215973,-0.1159778535366058,-0.5386795401573181,0.5629564523696899,jumping
1783090679209821700,3.70682177734375,-0.8161617770895362,0.183820443868637,7.079709254139662,-0.19489586353302,-0.0619711466133594,0.6710625290870667,jumping
1783090679219866600,3.71686669921875,0.2183174096942879,1.9807795567139983,7.038671141308545,-0.3603913486003876,0.2514365613460541,0.8637987375259399,jumping
1783090679229910500,3.72691064453125,0.4648117336135357,3.4369717602223155,5.414088995036482,-0.5684103965759277,0.5584537982940674,1.0934022665023804,jumping
1783090679239955700,3.736955810546875,2.20205967040509,3.9818855698809026,4.670719774696231,-0.6887115240097046,0.5598660707473755,1.2542169094085691,jumping
1783090679249999600,3.74699951171875,3.240396464198827,4.6469574985757465,3.201937261945009,-0.7553368806838989,0.2610726356506347,1.3853055238723757,jumping
1783090679260044500,3.75704443359375,2.907701217636466,3.796194655965268,1.1219114413201807,-0.7743262648582458,-0.3072715103626251,1.486790895462036,jumping
1783090679270088700,3.767088623046875,0.3381284505922347,1.2543512420415877,-2.8180595251560208,-0.617651104927063,-0.6373884081840515,1.3852858543395996,jumping
1783090679280133600,3.777133544921875,-1.3555167835772035,-0.0944379868462681,-5.5834004365593195,-0.3168244361877441,-0.7674097418785095,1.1781710386276243,jumping
1783090679290177500,3.787177490234375,-3.8867596007704734,-1.167698794505,-9.940209744662043,-0.0939242169260978,-0.1785984337329864,0.8956080675125122,jumping
1783090679300221700,3.7972216796875,-6.524497045567632,-4.153116873550415,-15.626881755125522,0.0030100531876087,1.1368948221206665,0.2978315055370331,jumping
1783090679310266600,3.8072666015625,-2.298490146242827,-3.1451451151430607,-18.392507328689096,-0.0617042779922485,2.2629501819610596,-0.2317544966936111,jumping
1783090679320310500,3.817310546875,3.2546617209166286,0.7128995555356145,-20.639451558220387,-0.2710146307945251,2.8999152183532715,-0.5415543913841248,jumping
1783090679330355700,3.827355712890625,3.974827175801992,4.167561870749294,-22.24254960243702,-0.2275922894477844,3.059776544570923,-0.5793637633323669,jumping
1783090679340399600,3.837399658203125,3.171773009827733,6.59604194034338,-20.647550693523883,0.371047705411911,2.455617666244507,-0.3158314526081085,jumping
1783090679350444500,3.847444580078125,0.8920354948498308,6.656177552354335,-18.264120602750776,1.0765221118927002,1.6891103982925415,-0.2190690040588379,jumping
1783090679360488700,3.85748876953125,-1.127236581865698,3.748338095290958,-14.82582723853588,1.3359664678573608,0.8686838150024414,-0.4594200849533081,jumping
1783090679370533600,3.86753369140625,-2.6294015781283377,0.2376739068701863,-13.305451901191471,1.1200186014175415,0.0867140144109726,-0.8949790000915527,jumping
1783090679380577500,3.87757763671875,-3.26297712931931,-2.1993428126618264,-14.296170911502838,0.7256914973258972,-0.7660035490989685,-1.4222103357315063,jumping
1783090679390622700,3.887622802734375,-1.131254731465876,-0.9336831178814172,-17.614373084437847,0.4107357263565063,-1.5238395929336548,-1.743040919303894,jumping
1783090679400666600,3.89766650390625,1.9794421706303953,2.16226074398011,-22.69363683514595,0.2135995030403137,-1.812598466873169,-1.800143122673035,jumping
1783090679410710500,3.90771044921875,4.172422170262038,4.946809921461344,-26.51399241116047,0.0842035412788391,-1.6447128057479858,-1.6406234502792358,jumping
1783090679420755700,3.917755615234375,4.608040615682303,6.900743849086761,-26.138271092820165,0.1864012777805328,-1.4380816221237185,-1.303550124168396,jumping
1783090679430799600,3.927799560546875,2.123475086250901,7.417320914316177,-22.30367656357288,0.5181368589401245,-1.4377098083496094,-0.9481313228607178,jumping
1783090679440844500,3.937844482421875,-0.6500627217419445,6.109192489379644,-16.579782199174165,0.8013821840286255,-1.689545750617981,-0.844482958316803,jumping
1783090679450888700,3.947888671875,-1.4765152989603578,4.3021629411578175,-10.444206729781628,0.8183313608169556,-2.180819034576416,-0.9970024824142456,jumping
1783090679460933600,3.95793359375,-0.7867758889336138,3.3760794846251603,-5.434891544568538,0.6178446412086487,-2.851717472076416,-1.18869149684906,jumping
1783090679470977500,3.9679775390625,0.7445557267110794,3.2968855364009735,-2.54860545540452,0.3474124372005462,-3.5149691104888916,-1.2316038608551023,jumping
1783090679481022700,3.978022705078125,2.2449207608796655,3.1207308048546314,-1.3594722432047128,0.1337155699729919,-3.903910398483277,-1.1068387031555176,jumping
1783090679491066600,3.988066650390625,3.074184449996054,2.9904487666890023,-0.9832225170761346,-0.0246891602873802,-3.895226001739502,-0.8148782253265381,jumping
1783090679510526700,4.007526611328125,3.771561442229152,2.239204575189948,-0.4049912519663572,-0.0259371902793645,-3.1717920303344727,-0.1756693422794342,jumping
1783090679520570600,4.017570556640625,3.595908522725105,0.6467559352815151,1.2501105357319116,0.1805925518274307,-2.7481000423431396,-0.1325796693563461,jumping
1783090679530615600,4.027615478515625,2.589358321553469,-0.6325964770257473,3.359493383744359,0.3980764150619507,-2.361828565597534,-0.1476904451847076,jumping
1783090679540659700,4.03765966796875,1.581146324649453,-1.3418535844057795,5.974444996237755,0.6384794116020203,-1.894445538520813,-0.1515392363071441,jumping
1783090679550704600,4.04770458984375,1.5017036623612046,-0.9823968799069523,9.001575726374984,0.7544418573379517,-1.5106046199798584,-0.1788752079010009,jumping
1783090679560748500,4.05774853515625,3.0544127048164604,-0.1210994915395975,12.483923920893668,0.6809330582618713,-1.3406459093093872,-0.152532011270523,jumping
1783090679570793700,4.067793701171875,4.249747109743953,1.1674383900031446,15.60045902762413,0.4829359948635101,-1.3063119649887085,0.0094988457858562,jumping
1783090679580837600,4.077837646484375,4.46030036997646,1.5946020185500382,17.204256160020826,0.219179168343544,-1.2094333171844482,0.1923999637365341,jumping
1783090679590881500,4.087881591796875,4.303123602883518,0.8283201246559619,16.65815489414334,-0.0749035850167274,-1.005684494972229,0.3457463681697845,jumping
1783090679600926700,4.0979267578125,4.140531825004518,0.0664484484195709,14.810004230982065,-0.3144243061542511,-0.6714380979537964,0.5107473134994507,jumping
1783090679610970600,4.107970703125,4.108992485141754,-0.3049532531559467,12.764450004279611,-0.3477773368358612,-0.2281407415866851,0.6698641180992126,jumping
1783090679621015600,4.118015625,4.0610575985342265,-0.9002578181415796,10.974901167690753,-0.2475934773683548,0.2179496586322784,0.7851592898368835,jumping
1783090679631059700,4.128059814453125,3.8513761527001855,-1.3119494445294142,9.682412210434675,-0.1364755481481552,0.6605860590934753,0.8652676939964294,jumping
1783090679641104600,4.138104736328125,3.841918588525056,-1.411512811565399,8.235576156553625,-0.0824405550956726,1.142081618309021,0.890775740146637,jumping
1783090679651148500,4.1481484375,3.601439561106264,-1.4480229255780577,6.956833400577306,-0.0587422288954257,1.621257185935974,0.870540201663971,jumping
1783090679661193700,4.15819384765625,3.0173873347580433,-1.2752408853352069,6.304398835137486,0.0035280704032629,1.9458166360855105,0.8306545615196228,jumping
1783090679671237600,4.168237548828125,2.5202695877581833,-1.2588710575535893,6.053257251667976,0.132832258939743,2.0741004943847656,0.7534084320068359,jumping
1783090679681282600,4.178282470703125,2.181645389538258,-1.6513739993467926,6.030221828517317,0.2598359882831573,1.9921380281448364,0.5998771786689758,jumping
1783090679691326700,4.18832666015625,1.5377164943762125,-2.671911809338629,6.388870431503653,0.3131461441516876,1.735260248184204,0.3731086552143097,jumping
1783090679701370600,4.19837060546875,1.1804954399749636,-3.8862747398629782,7.3349126802206035,0.191437542438507,1.3110644817352295,0.1206279322504997,jumping
1783090679711415600,4.20841552734375,1.3689192859858277,-4.563601462236046,8.20919609915018,-0.0086828479543328,0.8342901468276978,-0.0599866099655628,jumping
1783090679721459700,4.218459716796875,1.2451575894996525,-4.6784135440692305,9.005176965737343,-0.0435979552567005,0.4397806525230407,-0.204995721578598,jumping
1783090679731504600,4.228504638671875,1.2680369453057645,-4.251256637524068,9.157388803899288,0.0985583811998367,0.1707576364278793,-0.3173005282878876,jumping
1783090679741548500,4.238548583984375,1.168610210261494,-3.83302538023442,9.43085094024837,0.2807087302207947,0.0414883345365524,-0.3444008529186249,jumping
1783090679751593500,4.248593505859375,1.329986328740418,-3.390431250582635,10.18231637328267,0.3087552785873413,0.0167683400213718,-0.2871708571910858,jumping
1783090679761637600,4.2586376953125,1.7233783283278346,-2.7749668178826568,10.414410141932963,0.1791597455739975,0.0327851213514804,-0.1380330473184585,jumping
1783090679771682600,4.2686826171875,2.1579292906470595,-2.0979133594930173,10.01916579247713,-0.0338275767862796,0.1006581038236618,0.0721974894404411,jumping
1783090679781726700,4.278726806640625,2.5310636612340804,-1.4894395163327454,9.047335607030988,-0.2110691964626312,0.2616214156150818,0.2907841503620147,jumping
1783090679791771600,4.288771728515625,2.8199919545233247,-0.933767289033532,8.060888867211341,-0.3313955068588257,0.4059905707836151,0.4797192811965942,jumping
1783090679801815600,4.298815673828125,3.2866508503735066,-0.7581088165715336,7.688028783521056,-0.3660200536251068,0.5341013669967651,0.6239113211631775,jumping
1783090679811860500,4.308860595703125,3.120248866556585,-0.6868181888177991,7.619954195204377,-0.2874857783317566,0.6028398275375366,0.7051520943641663,jumping
1783090679821904600,4.318904541015625,1.9568455772884188,-0.8266492688342928,8.530055946490169,-0.1531660407781601,0.5132236480712891,0.7407487034797668,jumping
1783090679831948500,4.328948486328125,0.4234923926882445,-1.4389634208098052,10.122086068725585,-0.0066133122891187,0.3396363854408264,0.6337020397186279,jumping
1783090679841993500,4.338993408203125,1.2102855980828404,-2.1353891036674377,10.86464864885807,0.129672884941101,0.0489835329353809,0.5009921789169312,jumping
1783090679852037600,4.34903759765625,2.408505787579715,-1.3258376846283673,10.256574034148452,0.1707265377044677,-0.133766233921051,0.5270572900772095,jumping
1783090679862082300,4.359082275390625,2.0083599298179147,-0.0420171869963407,7.380715815496444,0.0409786626696586,-0.1328040361404419,0.6950204372406006,jumping
1783090679872755200,4.369755126953125,1.7798752915754914,0.6427598513826728,3.5712872916877267,-0.1049288734793663,0.1880746930837631,0.8739081025123596,jumping
1783090679882799000,4.379799072265625,1.5842233940072357,1.8163526723623276,-0.3048100452929735,-0.2501566410064697,0.7467361092567444,1.012267827987671,jumping
1783090679892844300,4.38984423828125,1.4697732773542402,3.452240056502819,-3.148159494528174,-0.4092811942100525,1.6223978996276855,1.19118070602417,jumping
1783090679902888200,4.39988818359375,-0.2814248588565737,4.686369763770699,-5.5786085261076686,-0.4299859404563904,2.8003811836242676,1.2713996171951294,jumping
1783090679912933400,4.409933349609375,-2.017645352296531,4.383438956353068,-7.854504709357022,-0.395454853773117,3.667502641677856,1.2083781957626345,jumping
1783090679922977300,4.419977294921875,-1.055075235692039,2.976694674363732,-8.146814169517159,-0.3777733147144317,4.139534950256348,0.7561339735984802,jumping
1783090679933022200,4.430022216796875,0.0363587776421569,-1.3777031886830926,-10.62956446622014,-0.3329411447048187,5.234390735626221,-0.0231210645288229,jumping
1783090679943066400,4.44006640625,-4.2687838186472655,-7.173953471979498,-18.15835019776821,-0.238121673464775,5.206021308898926,-0.4254032671451568,jumping
1783090679953111300,4.450111328125,0.0468984562318772,-5.95142126352489,-15.49181978920698,0.0153150260448455,4.46598482131958,-0.5929540395736694,jumping
1783090679963155200,4.4601552734375,2.4325382589437066,-2.7230776406913995,-17.289745993518828,0.3058848083019256,3.862511157989502,-0.7077946066856384,jumping
1783090679973200400,4.470200439453125,2.7132465670287607,2.447725745072961,-17.812003442472218,0.3550751805305481,3.0663444995880127,-0.5327572822570801,jumping
1783090679983244300,4.480244384765625,1.4456956516742705,6.463210509955883,-14.622647429680825,0.2474541664123535,2.0985941886901855,-0.4106846451759338,jumping
1783090679993288200,4.4902880859375,-1.1692698432140052,6.445192038184404,-11.87945346815586,0.0594227015972137,0.5276204943656921,-0.3771296739578247,jumping
1783090680003333400,4.50033349609375,-0.7903272247396409,3.968081793195009,-10.620470474660396,-0.0228013303130865,-1.0976017713546753,-0.554481565952301,jumping
1783090680013377300,4.510377197265625,1.0832000178709629,1.7120242828816177,-13.865090694034098,0.0769658610224723,-2.4650719165802,-0.7665651440620422,jumping
1783090680023422200,4.520422119140625,2.79724820779562,0.6477119208320975,-18.22360855962038,0.5468049645423889,-3.4218525886535645,-0.8490304946899414,jumping
1783090680033466400,4.53046630859375,4.467553994366527,3.3152953455775975,-21.977814962422848,0.8169392347335815,-3.6659014225006104,-0.574496328830719,jumping
1783090680043511000,4.540510986328125,6.178872174805402,5.328046788352728,-25.553225471520424,0.8427175879478455,-2.9536828994750977,-0.1564889401197433,jumping
1783090680053555200,4.55055517578125,5.922481000244617,5.32337996558547,-26.094186451900004,0.7360439896583557,-1.693820834159851,0.1637341529130935,jumping
1783090680063600400,4.560600341796875,3.915101021374762,4.47129551898241,-23.169652757406233,0.5553069710731506,-0.4371459782123565,0.204627513885498,jumping
1783090680073644300,4.570644287109375,1.234681349801272,2.861769779805839,-17.35548950853944,0.2746414244174957,0.2271076142787933,0.1243454590439796,jumping
1783090680083689200,4.580689208984375,-1.2837538621366025,1.6151614069759843,-11.512115362757443,-0.0025941603817045,0.2813655436038971,-0.0556410811841487,jumping
1783090680093733400,4.5907333984375,-2.5069044947504997,0.91321900652349,-7.651976057887077,-0.1574976295232772,-0.0762302428483963,-0.3879610300064087,jumping
1783090680103777300,4.60077734375,-2.625758545450866,0.5871455161884427,-5.509027040359378,-0.232477605342865,-0.6208738684654236,-0.8058624267578125,jumping
1783090680113822200,4.610822265625,-2.036432178092003,0.7247294018000364,-4.172908784735203,-0.252227246761322,-1.264393925666809,-1.1460719108581543,jumping
1783090680123866400,4.620866455078125,-0.900193812994659,1.1192080275803804,-3.547135431727767,-0.2083210349082946,-1.785772442817688,-1.36709725856781,jumping
1783090680133911000,4.6309111328125,0.3552192130595445,1.901081458359957,-2.992422989371419,-0.0414561703801155,-2.2785115242004395,-1.4745668172836304,jumping
1783090680143955200,4.640955078125,1.4114710182502863,2.3286621432751415,-2.613734637919068,0.0770808607339859,-2.439769506454468,-1.5486069917678833,jumping
1783090680154000400,4.65100048828125,1.8866501974254848,1.9371359375596044,-2.12944480831027,0.1606671959161758,-1.8936575651168823,-1.6277549266815186,jumping
1783090680164044000,4.6610439453125,1.424400642450154,1.418600139477849,0.5390887567669153,0.2336039990186691,-1.1807485818862915,-1.6721192598342896,jumping
1783090680174089200,4.671089111328125,0.3530979831218719,1.0989067055687307,5.850217143544555,0.2986722290515899,-0.6244267821311951,-1.5893701314926147,jumping
1783090680184133400,4.68113330078125,0.232471442856267,0.631383009582758,10.751035129159687,0.3763092458248138,-0.4636551737785339,-1.46416437625885,jumping
1783090680194178300,4.69117822265625,0.9755068281322716,-0.110975280149281,13.53470021728277,0.4825754165649414,-0.5494797825813293,-1.360173583030701,jumping
1783090680204222200,4.70122216796875,1.8772335497826336,-0.4237687254115939,15.112640439367294,0.4634685814380646,-0.8002622127532959,-1.221543312072754,jumping
1783090680214266400,4.711266357421875,3.0436127861216664,-0.448563851711154,15.923751070547103,0.302039235830307,-1.247918963432312,-1.0518289804458618,jumping
1783090680224311300,4.721311279296875,3.9234827730119224,-0.3555336858361959,16.319785693597794,0.1288682669401168,-1.7507461309432983,-0.8523100018501282,jumping
1783090680234355200,4.731355224609375,3.688070673593878,-0.3652934478282928,15.51306365276575,0.0669177323579788,-2.056401491165161,-0.6735042333602905,jumping
1783090680244400400,4.741400390625,2.923535331106186,-0.4110813855350017,13.410856395471097,0.120453655719757,-1.9799489974975584,-0.567886471748352,jumping
1783090680254444000,4.751444091796875,2.373021655613929,-0.5179352018401027,11.192269660896065,0.1340778470039367,-1.5643669366836548,-0.5461516380310059,jumping
1783090680264489200,4.7614892578125,2.066711581021547,-0.2307759640499949,9.74514134607017,0.047156274318695,-0.9185778498649596,-0.5369431972503662,jumping
1783090680274533400,4.771533447265625,1.93854288174808,0.1926525696218013,9.08563757289648,-0.0887685716152191,-0.0520670749247074,-0.4565078616142273,jumping
1783090680284578300,4.781578369140625,1.9252957160316408,0.3479986141562461,8.54581056498289,-0.2638647556304931,0.8928898572921753,-0.3378802835941314,jumping
1783090680294622200,4.791622314453125,2.0405232467979193,-0.287095232643187,7.898252665668726,-0.3923963904380798,1.8769110441207888,-0.2819867730140686,jumping
1783090680304667100,4.801667236328125,1.8045311555348336,-1.547469972757995,7.870738051277399,-0.4846863746643066,2.6655397415161133,-0.3472424745559692,jumping
1783090680314711300,4.811711181640625,1.405848063801974,-2.8343378752619026,8.533342128553986,-0.512908935546875,3.247429370880127,-0.4247398674488067,jumping
1783090680324755200,4.821755126953125,1.2252009892724454,-3.3513439795583486,9.630157122540473,-0.5467123985290527,3.4830825328826904,-0.4849297106266022,jumping
1783090680334800100,4.831800048828125,1.4610617092408238,-3.268008401484787,10.826729544830322,-0.5700916647911072,3.2931833267211914,-0.5059768557548523,jumping
1783090680344844300,4.84184423828125,1.1336463758427648,-2.983392418436706,11.817429850441217,-0.6028541326522827,2.72308087348938,-0.5069730877876282,jumping
1783090680354889200,4.85188916015625,0.6340520826615392,-2.5289380473822356,11.929240704631804,-0.7367143630981445,1.8586310148239136,-0.4907849431037903,jumping
1783090680364933400,4.861933349609375,0.5537046900859103,-2.306386306320131,11.31954111906886,-0.8338920474052429,0.9308032393455504,-0.4427383244037628,jumping
1783090680374978300,4.871978271484375,0.5949392388045788,-2.058914351274073,10.224288552093505,-0.8297398686408997,0.1126224845647811,-0.3410186469554901,jumping
1783090680385022200,4.882022216796875,0.8763553298328072,-1.5879095351740715,9.05197554179132,-0.7535138130187988,-0.4931135177612304,-0.204144686460495,jumping
1783090680395067100,4.892067138671875,1.2102436586372554,-1.441823194155097,7.811677959543466,-0.5996707677841187,-0.833395779132843,-0.0294029284268617,jumping
1783090680405111300,4.902111328125,1.6546937914192676,-1.180755844476819,7.1180521365374325,-0.3490699529647827,-0.982472598552704,0.1328546851873397,jumping
1783090680415156200,4.91215625,1.9068642795450983,-0.840265413993597,6.904861805799603,-0.0534507296979427,-0.9363315105438232,0.2259114384651184,jumping
1783090680425200000,4.9222001953125,2.310024078300595,-0.3589361877560615,7.256691376420855,0.1909875124692917,-0.8499609231948853,0.3271192908287048,jumping
1783090680435244300,4.932244384765625,2.567361593800783,-0.0478393172785639,8.428920215570926,0.2936577498912811,-0.7943085432052612,0.431852251291275,jumping
1783090680445289200,4.942289306640625,2.1324182711631057,-0.2392953705921769,9.643484806147216,0.20624640583992,-0.7480947375297546,0.457706481218338,jumping
1783090680455333000,4.9523330078125,0.6146575732965022,-0.978837141598761,10.579080479651688,-0.0621219351887702,-0.6500524282455444,0.3904184103012085,jumping
1783090680465378300,4.96237841796875,-0.2790978772137314,-1.6486235315948723,10.88710481081605,-0.4023338556289673,-0.5492150187492371,0.203922837972641,jumping
1783090680475422200,4.972422119140625,1.524400062815845,-1.939884359484911,10.607421607995033,-0.7048770785331726,-0.5054055452346802,-0.0162395052611827,jumping
1783090680485467100,4.982467041015625,3.9483939269065855,-0.7759069235906004,8.881565783637761,-0.9023714661598206,-0.5165900588035583,-0.0829463675618171,jumping
1783090680495511300,4.99251123046875,4.137671467137337,0.8750003350272774,5.662105139961838,-1.044539451599121,-0.4788488447666168,-0.1397565603256225,jumping
1783090680505556200,5.00255615234375,5.167579747542739,0.8899354538306593,2.222335857975483,-1.2552995681762695,-0.6157196164131165,-0.1638650894165039,jumping
1783090680515600100,5.01260009765625,4.717907642328739,1.4274281735777854,-1.1218898140102624,-1.4281424283981323,-0.6465862989425659,0.0833902657032013,jumping
1783090680525645300,5.022645263671875,0.3221620890449732,2.156587959040701,-4.713444233179092,-1.4159263372421265,-0.2911342084407806,0.4229323863983154,jumping
1783090680535689500,5.032689453125,-3.9349697971880433,0.3571732697367668,-6.792534234258532,-1.2052239179611206,-0.0040054894052445,0.4058737754821777,jumping
1783090680545733000,5.042733154296875,-3.5114939172431825,-2.345111173772812,-7.022628353524207,-0.792678713798523,0.0732216536998748,0.2456651926040649,jumping
1783090680555778300,5.0527783203125,-3.829620540226996,-2.3118249902427195,-9.255154766124486,-0.2024746090173721,0.464604765176773,0.2366726845502853,jumping
1783090680565822200,5.062822265625,-5.747732920625806,-1.479523686996102,-12.016166123890876,0.2903441190719604,1.1466141939163208,0.3501073718070984,jumping
1783090680575867100,5.0728671875,-5.915415299642086,0.3538306813105941,-13.612018434762954,0.3992374539375305,1.752302646636963,0.5194059610366821,jumping
1783090680585911300,5.082911376953125,-4.273773005236685,3.737726977166534,-14.09709561535716,0.2837744951248169,2.1396076679229736,0.5051098465919495,jumping
1783090680595956200,5.092956298828125,-2.9795398346617814,4.597731110852957,-15.15621303911209,0.1734742522239685,2.13828444480896,0.3522476553916931,jumping
1783090680606000000,5.103000244140625,-2.785601024621725,4.338839059387147,-15.5240842284739,0.4048563539981842,1.6328237056732178,0.1395537853240966,jumping
1783090680616045300,5.11304541015625,-3.2834988160833714,2.4092197810679674,-14.851879379159213,0.828620970249176,0.7655007243156433,-0.2278898358345031,jumping
1783090680626089200,5.123089111328125,-2.9321967764675616,-0.1917608814790845,-13.250144439989327,1.088399052619934,-0.3392075002193451,-0.6656488180160522,jumping
1783090680636134100,5.133134033203125,-1.861775868409872,-0.0185649997383356,-12.250271816885473,0.9363598823547364,-1.1746162176132202,-0.9650862812995912,jumping
1783090680646178300,5.14317822265625,-0.9653007836773992,2.057569658666849,-14.485637836825846,0.6325427293777466,-1.5871678590774536,-1.1958541870117188,jumping
1783090680656222500,5.153222412109375,-0.2526700351458043,4.335756583201885,-16.91337117970586,0.420209527015686,-1.637574315071106,-1.232880473136902,jumping
1783090680666267100,5.16326708984375,-0.2558624014463275,6.44544221355319,-18.48066024391651,0.4055677354335785,-1.4233136177062988,-1.1164342164993286,jumping
1783090680676311300,5.173311279296875,-0.0517504993729293,7.967507988202572,-18.445218343657253,0.336162805557251,-0.8894400000572205,-0.8685767650604248,jumping
1783090680686356200,5.183356201171875,-0.1086423802223056,8.171925814419984,-20.31664349942207,0.4996665120124817,-0.2663002908229828,-0.6071962714195251,jumping
1783090680696400100,5.193400146484375,-0.6148734810695051,8.23213858332038,-17.376619974851607,0.7894912958145142,0.1484348028898239,-0.4975060522556305,jumping
1783090680706445300,5.2034453125,-1.7314283637925982,6.9258069786727425,-15.255220525830984,0.8064852356910706,0.4403947293758392,-0.5313916206359863,jumping
1783090680716489200,5.2134892578125,-2.698447641825676,4.704693648229539,-13.63323190318346,0.6281276345252991,0.7330253720283508,-0.6900905966758728,jumping
1783090680726534100,5.2235341796875,-3.2317426176220176,2.946444497528672,-12.594706016558408,0.4830138683319092,1.1224452257156372,-0.9038721323013306,jumping
1783090680736578300,5.233578369140625,-2.573497027815878,2.211943058776855,-12.352733827972411,0.4382633566856384,1.4870954751968384,-1.0279803276062012,jumping
1783090680746623200,5.243623291015625,-0.7508165406715125,2.233032900817692,-11.71191897317767,0.4708077311515808,1.7421385049819946,-1.0394766330718994,jumping
1783090680756667100,5.253667236328125,1.2808408972993492,2.5165192953139544,-10.57874262599945,0.4287541210651397,1.844560503959656,-0.9195640087127686,jumping
1783090680766711300,5.263711181640625,2.6196792255371806,3.3028090812310573,-9.560342412558198,0.3615495264530182,1.988511323928833,-0.7379329800605774,jumping
1783090680776756200,5.273756103515625,3.592846212545037,3.564415944613516,-8.257830073937773,0.364331841468811,2.10052490234375,-0.5451979637145996,jumping
1783090680786800000,5.283800048828125,4.439368056584894,4.158829405978322,-5.180625691598653,0.4491524696350097,2.161726713180542,-0.2856771647930145,jumping
1783090680796845300,5.29384521484375,4.5872146852746605,4.728016656149924,-1.6273118634968995,0.695339560508728,2.2179362773895264,0.0499121770262718,jumping
1783090680806889200,5.30388916015625,3.5385248397707936,4.022475062161684,2.6085768167644736,0.9702973365783693,2.1278746128082275,0.3790924847126007,jumping
1783090680816934400,5.313934326171875,1.7544056270152328,2.540593121601641,7.200809914723038,1.051612138748169,1.809464693069458,0.6205630302429199,jumping
1783090680826978300,5.323978271484375,-1.1710004663988949,0.6899670082375406,10.779073475164177,0.8844416737556458,1.5873091220855713,0.7299606204032898,jumping
1783090680837023200,5.334023193359375,-5.370088525268435,-0.9259273891881108,12.2032575522542,0.5203081965446472,1.2231684923171997,0.5777419805526733,jumping
1783090680847067400,5.3440673828125,-4.558913012158871,-2.3016084243938324,15.381429323208332,0.1914491057395935,0.2940626144409179,0.3382375538349151,jumping
1783090680857113000,5.354113037109375,-2.918518379727006,-0.7565025504186749,17.217071217930314,-0.0142234181985259,-0.6249582767486572,0.2051115483045578,jumping
1783090680867157200,5.3641572265625,-3.025126989099383,0.8280407231926917,16.71153694024086,-0.108756311237812,-1.2853612899780271,0.2241004258394241,jumping
1783090680877201200,5.374201171875,-3.7246795718058943,0.2552247611299157,15.895655441397428,-0.1080861166119575,-1.6171811819076538,0.1545141637325287,jumping
1783090680887246000,5.38424609375,-4.012428592182696,-0.4288867990776896,14.608409645491838,-0.0759992897510528,-1.6406002044677734,0.0477182082831859,jumping
1783090680897290200,5.394290283203125,-3.097937081505358,-0.3498945109054446,13.216710956943034,0.0546930208802223,-1.520699143409729,0.0058915941044688,jumping
1783090680907335200,5.404335205078125,-1.843094987206906,0.3914262524724006,12.476009494507313,0.2279044836759567,-1.3088510036468506,0.0481599532067775,jumping
1783090680917379000,5.414379150390625,-0.898180281215161,0.4031301342695951,11.469158849084376,0.3420124650001526,-0.9314956068992616,0.1255687922239303,jumping
1783090680927424300,5.42442431640625,-0.2092138465886004,-0.1060442534878849,9.87935049455166,0.2853289246559143,-0.3263327479362488,0.2234610021114349,jumping
1783090680937468200,5.43446826171875,0.3938824865180999,-0.3452724040627479,8.466241353705525,-0.0092518478631973,0.3047491610050201,0.3440877795219421,jumping
1783090680947513000,5.44451318359375,0.9181803552579134,-1.0164493716344236,7.589502358317374,-0.3742455244064331,0.8323956727981567,0.4310338795185089,jumping
1783090680957557200,5.45455712890625,0.7161109918627887,-2.0098285410657524,6.72558426605761,-0.6245595216751099,1.163646221160889,0.4568214118480682,jumping
1783090680967602200,5.464602294921875,-0.1300808895703405,-3.1331758604079485,5.693058496630192,-0.7218016982078552,1.2248653173446655,0.3702417910099029,jumping
1783090680977646000,5.47464599609375,-0.3252716359002515,-4.257068246412277,4.66147088483572,-0.645814836025238,1.1079529523849487,0.2165274620056152,jumping
1783090680987690200,5.484690185546875,-0.2475479428917169,-4.414244428983331,3.8439959793210026,-0.4210509657859802,0.8480955958366394,0.0512650050222873,jumping
1783090680997735200,5.494735107421875,-0.1859505877651274,-4.0387542890504005,4.742911150681972,-0.1484048664569854,0.5615577697753906,-0.108395516872406,jumping
1783090681007779000,5.504779052734375,-0.4343281864140182,-3.497416292051971,6.383558296570182,0.0748015865683555,0.3757348954677582,-0.2093522399663925,jumping
1783090681017824300,5.51482421875,-0.6425956007316708,-2.9698195278972386,8.584003225255012,0.1938082128763198,0.2065924704074859,-0.2838150858879089,jumping
1783090681027868200,5.5248681640625,-0.8018629834283143,-3.0811063582137224,10.991639536523818,0.1726677864789962,0.0307761617004871,-0.3459117412567138,jumping
1783090681037913000,5.5349130859375,-0.8875403023224323,-3.2416330202564594,12.769238407599923,0.0118489284068346,-0.1521622687578201,-0.3526569306850433,jumping
1783090681047957200,5.544957275390625,-0.6818795633718371,-3.154224785916507,13.544521354073286,-0.2153421491384506,-0.2803495526313782,-0.2948418259620666,jumping
1783090681058002200,5.555002197265625,-0.2448619917433708,-2.736085006302595,13.28220078946352,-0.4204976558685303,-0.3295824527740478,-0.1781917065382003,jumping
1783090681068046000,5.565046142578125,0.0698432784896344,-2.328184004369378,12.398899366819858,-0.5065785050392151,-0.361889511346817,-0.1007709503173828,jumping
1783090681078091300,5.57509130859375,0.1144849322380498,-2.124563758270442,11.301939995926618,-0.4693977236747741,-0.3626240789890289,-0.0620586238801479,jumping
1783090681088135200,5.58513525390625,0.018546075842157,-1.8712550598949191,10.321897862452268,-0.3657072782516479,-0.3671897947788238,-0.0473718233406543,jumping
1783090681098179000,5.595178955078125,0.0581321997666731,-1.7646821063578129,9.757453715154528,-0.290160059928894,-0.313518613576889,-0.0532585680484771,jumping
1783090681108224300,5.605224365234375,-0.6009688378250226,-1.8549352087348696,9.279051774540545,-0.2737129032611847,-0.2425922602415084,-0.0922781378030777,jumping
1783090681118268200,5.61526806640625,-1.2291748613394795,-2.2000214425757525,9.287733678168058,-0.3032737076282501,-0.1746440380811691,-0.1415382325649261,jumping
1783090681128313000,5.62531298828125,-2.0096951239444314,-2.0918384234935044,9.008766514661907,-0.2997186481952667,-0.2240954786539077,-0.2174713462591171,jumping
1783090681138357200,5.635357177734375,-2.368120585699379,-1.425362473219633,8.336693767294287,-0.3291364014148712,-0.2832107543945312,-0.1203441023826599,jumping
1783090681148402200,5.645402099609375,-2.374703325090558,-0.2745391179308295,7.536870838326215,-0.37420853972435,-0.5998810529708862,-0.0897321328520774,jumping
1783090681158446000,5.655446044921875,-0.3742714848581701,-0.1994201640605926,7.593776382374763,-0.4855258464813232,-1.118153691291809,-0.0818864107131958,jumping
1783090681168491000,5.665490966796875,2.392940261918306,0.7120680731475353,6.874865311464667,-0.6654964089393616,-1.641701340675354,0.0586193017661571,jumping
1783090681178535200,5.67553515625,5.075968800815939,3.1692727174445987,5.257443558341264,-0.971802294254303,-1.957972288131714,0.5157933831214905,jumping
1783090681188580400,5.685580322265625,4.951925072517991,4.796864274665713,2.0691133814662694,-1.2643367052078247,-1.7990766763687134,1.110727071762085,jumping
1783090681198624300,5.695624267578125,2.7506740881472824,4.6013615763098,-2.1132944684982298,-1.327898383140564,-1.465537428855896,1.5743589401245115,jumping
1783090681208668200,5.705668212890625,1.8938602749347688,4.320549953980744,-5.599163238358497,-1.2846760749816897,-1.104797601699829,2.006152391433716,jumping
1783090681218713000,5.715713134765625,3.701799923738837,6.063584584414959,-10.754660333919524,-1.1978814601898191,-0.2980230152606964,2.4849259853363037,jumping
1783090681228757200,5.72575732421875,4.797762684810161,9.93876363750696,-19.169756606799364,-1.1144582033157349,1.0697927474975586,3.1527276039123535,jumping
1783090681238802200,5.73580224609375,-0.706414358234778,8.039647341740132,-21.89449955035448,-0.8585684299468994,1.837026596069336,2.934814691543579,jumping
1783090681248846000,5.74584619140625,-10.088101966059208,-1.310006493768096,-17.265803976917265,-0.3620830476284027,1.9777672290802,1.4742249250411987,jumping
1783090681258891000,5.75589111328125,-10.58773257266283,-6.7494555555105205,-13.177145839273928,0.2775254845619201,1.010666012763977,-0.0013506305404007,jumping
1783090681268935200,5.76593505859375,-4.302783703404665,-2.0099027753457426,-9.618141690576076,0.6556668877601624,0.225638061761856,-0.5787631273269653,jumping
1783090681278980400,5.77598046875,-1.6494681657254695,2.583090493330359,-12.992724506902691,0.7448839545249939,0.0620754770934581,-0.8941299915313721,jumping
1783090681289024000,5.78602392578125,0.3809366418357938,1.4865209985375405,-16.80662929934263,0.5701296925544739,0.0234631039202213,-1.2886748313903809,jumping
1783090681299069200,5.796069091796875,2.0019766585215923,-1.2051359602347016,-17.00750843003988,0.1891858130693435,-0.4531112313270569,-1.6152948141098022,jumping
1783090681309113300,5.80611328125,2.330057250895351,-1.105961592516303,-16.77671697615981,-0.1572544276714325,-1.1274564266204834,-1.6873383522033691,jumping
1783090681319157200,5.8161572265625,1.6917261757403612,0.4250108344271779,-17.38040300052166,-0.238733172416687,-2.038827419281006,-1.5678372383117676,jumping
1783090681329202200,5.8262021484375,0.9929342021428048,2.351223811434209,-17.20910067744255,-0.2844039797782898,-2.5582447052001953,-1.3391754627227783,jumping
1783090681339246300,5.836246337890625,0.6331175782904028,4.622252973169088,-19.085114330041407,0.1113350391387939,-2.598663806915283,-0.8768793344497681,jumping
1783090681349291000,5.846291015625,0.0472175321184098,6.472144927039742,-17.433430826354027,0.9540934562683104,-2.282128095626831,-0.3447754383087158,jumping
1783090681359335200,5.856335205078125,-0.3025998949628323,7.08618341858983,-15.56192734465599,1.3065019845962524,-1.6862709522247314,0.17802794277668,jumping
1783090681369380400,5.86638037109375,0.0182337950225919,6.43264819843173,-14.298323121100664,0.9471184015274048,-0.6688007116317749,0.5841439962387085,jumping
1783090681379424000,5.876424072265625,-0.945533349346742,4.5539477909669275,-10.917173785865309,0.6081539988517761,0.0462734252214431,0.7325258255004883,jumping
1783090681389469200,5.88646923828125,-2.714917715111375,2.480851769605279,-8.503545540705323,0.0594669245183467,0.5651301741600037,0.4334043860435486,jumping
1783090681399513300,5.896513427734375,-2.9738375313669443,1.4346239303007722,-9.247082518827916,-0.4359732866287231,0.9845993518829346,0.1812543421983719,jumping
1783090681409557000,5.906556884765625,-2.415791414543241,2.776786726786196,-10.6695516086936,-0.6197783350944519,1.261465549468994,0.0491860583424568,jumping
1783090681419602200,5.916602294921875,-1.2680958358861505,4.190615414078533,-12.78936934148073,-0.5129249095916748,1.5244927406311035,0.023273779079318,jumping
1783090681429646300,5.926646240234375,-0.1785595276657491,5.175065719383955,-13.965193574774265,-0.2530703842639923,1.7002564668655396,0.119499921798706,jumping
1783090681439691000,5.93669091796875,0.5362854263165965,5.723489875251055,-12.16851123304367,0.0006541034672409,1.7760337591171265,0.27723228931427,jumping
1783090681449735200,5.946735107421875,0.976762235020846,5.520217711937427,-8.678155673158168,0.1703515201807022,1.8862383365631104,0.4812006056308746,jumping
1783090681459780000,5.956780029296875,1.1296112020425495,5.259601028636098,-5.061185657703876,0.2946417033672333,2.033594846725464,0.7127781510353088,jumping
1783090681469824000,5.966823974609375,1.3020572883293031,4.870732351692021,-1.123362224650383,0.3013243675231933,1.9510157108306885,0.9608758687973022,jumping
1783090681479869200,5.976869140625,0.2926322258410975,3.5327301820173855,2.89754748789072,0.250930905342102,1.74743914604187,1.0708671808242798,jumping
1783090681489913300,5.986913330078125,-0.8120433819852769,0.6853223973020911,5.929044596543908,0.2505782842636108,1.1680015325546265,0.9097006916999816,jumping
1783090681499957000,5.99695703125,-1.1078466756105425,-1.428462777322531,9.82634371150732,0.2751936018466949,0.3431845307350158,0.730902910232544,jumping
1783090681510002200,6.007002197265625,-2.110144480034709,-1.9993919027253984,12.429472199738026,0.1796247363090515,-0.3955694437026977,0.5737265944480896,jumping
1783090681520046300,6.01704638671875,-3.3312522086441514,-2.9110739089399575,13.85222302915454,-0.0627790167927742,-1.0319960117340088,0.408106654882431,jumping
1783090681530091000,6.027091064453125,-3.8649312153220174,-3.2609377324461937,15.187202051615714,-0.2526008784770965,-1.581231713294983,0.2574045062065124,jumping
1783090681540135200,6.03713525390625,-3.830723825293779,-2.7351629230216146,15.858457637381552,-0.2456447631120681,-1.9693101644515991,0.169310450553894,jumping
1783090681550180000,6.04718017578125,-2.8816341717049476,-1.4223124379992484,14.953630611628292,-0.150388017296791,-2.01644515991211,0.180200383067131,jumping
1783090681560224000,6.05722412109375,-2.371482609478384,-0.5223197005346417,13.242408877301216,-0.0767737030982971,-1.7291589975357056,0.2336661964654922,jumping
1783090681570269200,6.067269287109375,-2.2151986995719373,-0.9771543030783534,12.254400879514217,-0.0711954459547996,-1.35836923122406,0.262119710445404,jumping
1783090681580313000,6.07731298828125,-1.6796989072076975,-2.0825997627660633,11.799883672356604,-0.1342881321907043,-1.0513166189193726,0.2438220828771591,jumping
1783090681590358300,6.087358154296875,-1.0816882981337606,-3.182908736348152,10.649694231057168,-0.2158301323652267,-0.7070607542991638,0.1804420351982116,jumping
1783090681600402200,6.097402099609375,-0.4073228367190807,-3.57261503316015,9.098089642712472,-0.2206386923789978,-0.3147146105766296,0.0998164936900138,jumping
1783090681610447000,6.107447021484375,0.3703484661955386,-3.613072715754807,7.364634449267387,-0.1686737686395645,0.199590265750885,0.0369669534265995,jumping
1783090681620491300,6.1174912109375,0.7752575928363948,-3.5160225005835293,6.059344462627172,-0.1186522617936134,0.6499795317649841,0.0033569787628948,jumping
1783090681630535200,6.12753515625,0.9225953952211886,-3.881036839209497,5.900321775406598,-0.1155994832515716,0.940190315246582,-0.0364982895553112,jumping
1783090681640580000,6.137580078125,0.8379359481327235,-4.418662537686527,5.745967664518952,-0.1771690845489502,1.0542042255401611,-0.0864282771944999,jumping
1783090681650624300,6.147624267578125,0.6627674511447549,-4.629264897757769,5.566852621862292,-0.2157212793827057,0.9472668170928956,-0.1105953976511955,jumping
1783090681660669200,6.157669189453125,0.3967648370213806,-4.705981057691574,5.731627004477382,-0.1679478734731674,0.615515947341919,-0.1662644147872924,jumping
1783090681670713000,6.167713134765625,0.2107101860935799,-4.915003162834048,5.9475213334769,-0.0589249841868877,0.2799858450889587,-0.234662115573883,jumping
1783090681680758300,6.17775830078125,-0.0902700352455489,-4.95849159142673,6.576623538646102,0.1331580430269241,0.0964920297265052,-0.3013218343257904,jumping
1783090681690802200,6.18780224609375,-0.5136716991767287,-4.817035248295962,8.113787513706088,0.2672679126262665,-0.0465942919254303,-0.3862255215644836,jumping
1783090681700847000,6.19784716796875,-0.8258557803690433,-4.686488129453361,9.742889767751096,0.2771567702293396,-0.0081365853548049,-0.4961809515953064,jumping
1783090681710891300,6.207891357421875,-0.7309773562788963,-4.4762788603529335,11.32974102604389,0.0908033996820449,0.1284572184085846,-0.5891431570053101,jumping
1783090681720935200,6.21793505859375,-0.0006869136850815,-3.8068420144468544,11.92962181290388,-0.1700265556573867,0.2255715131759643,-0.5609617829322815,jumping
1783090681730980000,6.22797998046875,0.607461305116862,-3.1593355530589817,12.30844343534708,-0.3696749806404114,0.2271060198545456,-0.4945957958698272,jumping
1783090681741024300,6.238024169921875,1.1597150292094796,-2.646273802474141,11.111018780142068,-0.4609639644622803,0.2299150079488754,-0.4002547860145569,jumping
1783090681751069200,6.248069091796875,1.2362990141309798,-2.6020857011795044,9.548201308387515,-0.4277511537075043,0.219186469912529,-0.3441446423530578,jumping
1783090681761113000,6.258113037109375,1.0400758925460278,-3.013689357022941,8.740594885936378,-0.3053813278675079,0.204330489039421,-0.3163328468799591,jumping
1783090681771158300,6.268158203125,1.1554605135701597,-3.434427044175565,8.686431334072351,-0.1684053540229797,0.1526220291852951,-0.2799908220767975,jumping
1783090681781202200,6.2782021484375,1.30857178478986,-3.4197020609915256,9.20565160728693,-0.0074965399689972,0.089299626648426,-0.2305579036474228,jumping
1783090681791247000,6.2882470703125,1.2606222851350903,-3.2991105189740657,9.766918878114224,0.1064001992344856,0.0229195393621921,-0.1743316501379013,jumping
1783090681801291300,6.298291259765625,1.0005738301757725,-3.035047786872089,10.438984611219167,0.0920963287353515,-0.1494815945625305,-0.1336288303136825,jumping
1783090681811336000,6.3083359375,0.6557382100950926,-2.2145535335361957,10.79597901725769,-0.0565096549689769,-0.4541352391242981,-0.0299863200634717,jumping
1783090681821380000,6.318380126953125,0.30858854091838,-1.3645733657360075,9.56962345112264,-0.2103414684534073,-0.7739828824996948,0.1144687160849571,jumping
1783090681831424300,6.32842431640625,-0.3537070183983072,-0.4572171137660741,6.811384480679035,-0.2680375277996063,-1.035613179206848,0.2616626918315887,jumping
1783090681841469000,6.338468994140625,0.6202564162168651,0.136307582065463,4.56751191367805,-0.1571040600538253,-1.3375203609466553,0.3912031352519989,jumping
1783090681851513000,6.34851318359375,2.9411297322466967,2.0737752357974646,4.006904568064212,0.0823652520775795,-1.616389513015747,0.7023199796676636,jumping
1783090681861557800,6.358557861328125,3.9815515156209464,4.625628587082028,3.7033699495345354,0.1949827075004577,-1.644611358642578,1.2583436965942385,jumping
1783090681871601700,6.3686015625,3.0938106492251154,6.678098292261362,3.212131323701143,-0.0438008420169353,-1.471495270729065,1.9988216161727903,jumping
1783090681881646600,6.378646484375,2.1688202486261723,7.748677021229267,3.3717075531512495,-0.5428578853607178,-1.6168657541275024,2.619745969772339,jumping
1783090681891690800,6.388690673828125,3.498760400137305,7.854944269818067,2.675848856526613,-1.4690145254135132,-1.8953138589859009,3.0910627841949463,jumping
1783090681901735400,6.3987353515625,3.4360096371918916,8.68712165442407,-4.618101114186644,-2.1288902759552,-1.1816142797470093,3.70820951461792,jumping
1783090681911779600,6.408779541015625,-5.600076261550187,7.056828729289769,-19.891885470712182,-2.1735126972198486,0.1572324186563491,3.2098021507263184,jumping
1783090681921823500,6.418823486328125,-10.901832424348592,-2.5120266600698233,-31.34986826126575,-0.9039584398269652,1.178422451019287,1.6463083028793335,jumping
1783090681931868700,6.42886865234375,-6.795085087785124,-5.506255822080373,-33.475306756544114,0.7684590220451355,1.2488139867782593,0.3159054219722748,jumping
1783090681941912600,6.43891259765625,-2.940197127571702,0.1328811147481203,-27.672479725205896,1.2763020992279053,1.084132194519043,-0.403714120388031,jumping
1783090681951957800,6.448957763671875,-2.877437889058888,3.8966213618323207,-19.761326661431788,0.8970207571983337,0.963824450969696,-0.8695942163467407,jumping
1783090681962001700,6.459001708984375,-2.90092368632555,4.209913696527481,-14.362006780982016,0.5111582279205322,0.7666040658950806,-1.2266552448272705,jumping
1783090681972046600,6.469046630859375,-3.9455052197277545,4.082594015298784,-12.26233868677616,0.2829551696777344,-0.1772045493125915,-1.4558881521224976,jumping
1783090681982090800,6.4790908203125,-3.521415299537778,4.702057162246108,-11.749100410580636,0.1097560301423072,-1.313570499420166,-1.47128427028656,jumping
1783090681992135400,6.489135498046875,-2.878424269747734,5.651244138729572,-15.017330638122557,0.0456460118293762,-2.257984161376953,-1.2542264461517334,jumping
1783090682002179600,6.4991796875,-1.6651532261133193,6.1101464291036125,-19.14747112523317,0.1842602342367172,-2.512050151824951,-0.780069887638092,jumping
1783090682012224800,6.509224853515625,-1.0310964672766625,6.058081895345449,-23.469479753589628,0.433328628540039,-2.1737661361694336,-0.1810953766107559,jumping
1783090682022268400,6.519268310546875,-0.1018428562752902,6.863886236810684,-22.678514084815976,0.6235333681106567,-1.700297236442566,0.5046208500862122,jumping
1783090682032312600,6.5293125,-0.228956493537873,7.08245416893363,-19.0912412884891,0.7490606307983398,-1.3085228204727173,1.0578361749649048,jumping
1783090682042357800,6.539357666015625,-2.8494468893274663,5.430578357544541,-14.606443313854932,0.7625510096549988,-1.2517051696777344,1.1172765493392944,jumping
1783090682052401700,6.549401611328125,-4.678859534271061,2.6484607911244034,-10.541410381948948,0.5210097432136536,-1.5645285844802856,0.6911396384239197,jumping
1783090682062446600,6.559446533203125,-5.030482476404309,2.0061822935178877,-10.381714325511457,0.2464175522327423,-1.6224347352981567,0.2745088040828705,jumping
1783090682072490800,6.56949072265625,-4.596390802159905,4.527100408312678,-13.044381044381856,0.3448514342308044,-1.3746918439865112,0.0617438144981861,jumping
1783090682082535400,6.579535400390625,-3.338760392317176,5.840877652791142,-14.725538479834794,0.6903765797615051,-0.8218408226966858,-0.0878700837492942,jumping
1783090682092579600,6.58957958984375,-2.6205767588987947,4.966899938809871,-15.00919409341812,1.002801775932312,-0.2694205045700073,-0.2497021257877349,jumping
1783090682102624800,6.599624755859375,-0.9301398923166097,3.53415816899389,-12.030614335960149,1.285740613937378,0.243059828877449,-0.4421847760677337,jumping
1783090682112668400,6.60966845703125,0.3148321114830673,2.8297388570338486,-7.0649909929573536,1.5093233585357666,0.6053333282470703,-0.5958595871925354,jumping
1783090682122713600,6.619713623046875,1.4000643658339975,2.1742250302791595,-1.8783529092013835,1.568115472793579,0.949560284614563,-0.6130473613739014,jumping
1783090682132757800,6.6297578125,2.5297753749892116,1.4879326189011337,2.4231366627395152,1.3620024919509888,1.150745511054993,-0.5017533302307129,jumping
1783090682142801400,6.639801513671875,3.0314877563029525,0.3036144057676196,6.227778536793589,0.9715445637702942,1.1543792486190796,-0.3670036494731903,jumping
1783090682152846600,6.6498466796875,3.662385904978215,-0.9016960342511534,9.606547114372251,0.5855814218521118,0.6754387617111206,-0.1587052792310714,jumping
1783090682162890800,6.659890869140625,2.147361427142471,-0.7152449496179819,13.26869365763664,0.2253788709640503,0.009572023525834,-0.0032723546028137,jumping
1783090682172935700,6.669935791015625,0.9835333365909754,-1.3716376050338148,15.448048452019693,-0.0145093640312552,-0.8285117149353027,0.0521791875362396,jumping
1783090682182979600,6.6799794921875,0.8499336983099579,-0.3386412954851985,16.614835976898668,-0.1194098889827728,-1.6129649877548218,0.1699321717023849,jumping
1783090682193024500,6.6900244140625,1.3201898879997431,1.8623615593433376,16.38905738274455,-0.0158281028270721,-2.167872905731201,0.36726975440979,jumping
1783090682203068700,6.700068603515625,1.520483181633055,2.3951091303899883,15.760596982610224,0.1754208654165268,-2.4007346630096436,0.4892307817935943,jumping
1783090682213113600,6.710113525390625,1.6313028328292072,1.6386986421689391,14.365633154785632,0.2602787613868713,-2.2086939811706543,0.5303060412406921,jumping
1783090682223157800,6.72015771484375,1.8802122733324764,0.5269961679130792,12.98165132422447,0.2639779150485992,-1.7122313976287842,0.4778783917427063,jumping
1783090682233201400,6.730201416015625,2.218777434841543,-0.5142611895024776,11.889546992146968,0.285847544670105,-0.9434544444084167,0.3897477090358734,jumping
1783090682243246600,6.74024658203125,1.9916163002878424,-1.503513634392619,11.1275946518898,0.2545512914657593,-0.1570325791835785,0.2427645921707153,jumping
1783090682253290800,6.750290771484375,1.6317950002603232,-2.4804770910739897,10.2361227822721,0.0930489301681518,0.5388807654380798,0.0438328497111797,jumping
1783090682263335700,6.760335693359375,1.680178361287713,-2.6846841971501707,9.33363092146814,-0.0931078940629959,1.1108238697052002,-0.1076200529932975,jumping
1783090682273379600,6.770379638671875,1.9936555510304868,-2.2000106289207935,8.266421376672387,-0.2162218391895294,1.5058740377426147,-0.2177934199571609,jumping
1783090682283424500,6.780424560546875,2.201894396840781,-2.1785493232190607,7.450388486659526,-0.2736580967903137,1.6620173454284668,-0.3285090029239654,jumping
1783090682293468700,6.79046875,2.0077837373651564,-2.718232831008732,6.5034577646702525,-0.2804544866085052,1.670722723007202,-0.4460417628288269,jumping
1783090682303513600,6.800513671875,1.7299163517944514,-3.240852975794673,5.503821872931718,-0.231075644493103,1.494379639625549,-0.5961170196533203,jumping
1783090682313557500,6.8105576171875,1.407499484270811,-3.676319737784565,5.023921218192577,-0.1044271662831306,1.1963183879852295,-0.7606961131095886,jumping
1783090682323602700,6.820602783203125,0.9761251061610876,-3.8129236724480986,5.183834132251143,0.0461197830736637,0.8148903250694275,-0.9113781452178956,jumping
1783090682333646600,6.830646484375,0.6445327062740922,-3.881735050606727,6.145560856834054,0.1858971267938614,0.523678719997406,-1.0490262508392334,jumping
1783090682343690800,6.840690673828125,0.4615397992707788,-3.776642691016197,7.870713501358032,0.2961494922637939,0.2912892401218414,-1.151266098022461,jumping
1783090682353735700,6.850735595703125,0.4831280923530459,-3.3616961544856427,9.940552274489402,0.3674660325050354,0.1029733940958976,-1.1829978227615356,jumping
1783090682363779600,6.860779541015625,0.9616795244403182,-3.2237288225144147,11.810975559735295,0.2492442429065704,-0.074327602982521,-1.1613645553588867,jumping
1783090682373824500,6.870824462890625,1.711319787874073,-3.327254078918695,12.449015104597809,-0.0052463505417108,-0.1324111521244049,-1.08910071849823,jumping
1783090682383868700,6.88086865234375,2.2330654879130423,-2.845098338729143,11.915619006514548,-0.2496370822191238,-0.0472276359796524,-0.9443122744560242,jumping
1783090682393913600,6.89091357421875,2.5713658610060808,-2.183368121677637,10.84551374027729,-0.4022564589977264,0.1164249405264854,-0.7710132002830505,jumping
1783090682403957500,6.90095751953125,2.3569398509934545,-1.9880892952054736,9.864702375996112,-0.4454114139080047,0.2887385189533233,-0.6925705671310425,jumping
1783090682414002700,6.911002685546875,1.8576172874256969,-2.2346920662015677,8.958058656209706,-0.3664998412132263,0.5060546398162842,-0.697914183139801,jumping
1783090682424046600,6.921046630859375,1.5845254456937312,-2.332037464927137,8.723433907777071,-0.250423789024353,0.6677079200744629,-0.7442350387573242,jumping
1783090682434090500,6.931090576171875,1.8740490745276213,-2.247834164108336,9.127160254374148,-0.1611807346343994,0.7867986559867859,-0.7754464745521545,jumping
1783090682444135700,6.9411357421875,2.264289332085848,-2.017473210600018,9.412823700648543,-0.0571699067950248,0.8874034285545349,-0.7569141387939453,jumping
1783090682454179600,6.9511796875,2.4086525025740264,-2.1222896758586165,9.775804779881238,0.0346396416425704,0.9528993368148804,-0.7342788577079773,jumping
1783090682464224500,6.961224609375,2.44449129319638,-2.3815333172410726,10.249117872923613,0.0732690095901489,0.9694213271141052,-0.7067975997924805,jumping
1783090682474268700,6.9712685546875,2.1521720422945916,-2.2301371793761846,10.355459940314292,0.0461356602609157,0.9950947165489196,-0.6675649881362915,jumping
1783090682484313600,6.981313720703125,1.802382891459763,-1.9687071338653563,9.8347725171566,-0.0928046777844429,0.9464124441146852,-0.6245658993721008,jumping
1783090682494357500,6.991357421875,1.5925852719001472,-1.055915412843227,8.99805924268663,-0.3459879159927368,0.7523521184921265,-0.5653870105743408,jumping
1783090682504402700,7.001402587890625,2.2956518540769815,0.1563572674036026,7.906763304382563,-0.5131371021270752,0.3744735717773437,-0.430680364370346,jumping
1783090682514446600,7.011446533203125,3.1839544460088014,1.567377327015996,5.720339302265644,-0.4922587275505066,0.0448376163840293,-0.2356938421726226,jumping
1783090682524491500,7.021491455078125,4.114851148042082,3.0156723475337026,3.49311917937994,-0.3073905110359192,-0.1918587684631347,0.0252736322581768,jumping
1783090682534535700,7.03153564453125,4.868223291480541,4.261700874648988,2.438278702291846,-0.0995193272829055,-0.2366017401218414,0.3309059739112854,jumping
1783090682544579600,7.04157958984375,2.9796234212920067,4.4146267062991855,1.3370353704690932,-0.1566277742385864,0.1813366860151291,0.7714366316795349,jumping
1783090682554624500,7.05162451171875,-1.2292960035011171,3.5549633488744496,0.5391448708683252,-0.6274048686027527,0.6109088063240051,0.9337320327758788,jumping
1783090682564668700,7.061668701171875,-0.6331164823118597,2.361454113547504,1.2171844176858664,-1.4815798997879028,0.8527394533157349,1.0186916589736938,jumping
1783090682574713600,7.071713623046875,1.7518799079298972,5.9688230647027485,-4.373544169804454,-2.460308790206909,1.5427021980285645,1.7578022480010986,jumping
1783090682584757500,7.081757568359375,-1.226679975783825,6.661757398313283,-14.411469023287296,-3.402845621109009,2.8592026233673096,1.768027424812317,jumping
1783090682594802700,7.091802734375,-4.003409419424831,0.9779767253771424,-26.305154430413246,-3.5935018062591553,3.423790454864502,1.2052079439163208,jumping
1783090682604846600,7.1018466796875,-1.8150830908179283,2.922041000895202,-29.115453842961788,-2.342668294906616,2.997926950454712,0.9753354787826538,jumping
1783090682614891500,7.1118916015625,0.0231514872783795,7.143311080956459,-27.53502121953964,-0.1880223602056503,1.9651843309402464,0.8845522999763489,jumping
1783090682624935700,7.121935791015625,-1.6948852242931722,8.059059313696622,-22.216168960511684,1.3950486183166504,0.9591585993766784,0.6641849279403687,jumping
1783090682634979800,7.131979736328125,-3.3383000813290473,6.2659881482005115,-14.362480243712662,1.8087069988250732,0.0841357707977294,0.0296532474458217,jumping
1783090682645024500,7.1420244140625,-6.101507780095934,0.9514023144453764,-7.5552382696658364,1.2971582412719729,-0.3994411826133728,-0.8588412404060364,jumping
1783090682655068700,7.152068603515625,-7.632904277670383,-3.2784351029530168,-5.15155741802454,0.6846045255661011,-0.9735457301139832,-1.6700356006622314,jumping
1783090682665113600,7.162113525390625,-4.457581758667528,-2.360328908909857,-6.797321468535065,0.3289904594421386,-1.0735353231430054,-2.0209295749664307,jumping
1783090682675157500,7.172157470703125,-3.0703374191790815,1.2485180058434604,-12.36952129664421,-0.023328173905611,-0.8506507277488708,-2.0070595741271973,jumping
1783090682685202700,7.18220263671875,-1.5634063775584102,2.46792448349297,-16.383879687845706,-0.3771738708019256,-0.5895365476608276,-1.9199268817901611,jumping
1783090682695246600,7.19224658203125,0.5845200995882973,2.649067524845898,-19.27446668907404,-0.6399535536766052,-0.2350096404552459,-1.8051172494888303,jumping
1783090682705291500,7.20229150390625,1.7535824740640815,4.769948210689425,-20.848986289060115,-0.4426727294921875,0.0037823137827217,-1.346352458000183,jumping
1783090682715335700,7.212335693359375,1.2292200156554578,6.605728637099266,-20.544555598473547,0.2588598430156708,0.1628230959177017,-0.8148739337921143,jumping
1783090682725379600,7.222379638671875,-0.5058499925751239,6.871288037499785,-19.01975776851177,0.8566223978996277,0.1647394746541977,-0.513564944267273,jumping
1783090682735424500,7.232424560546875,-2.495206165911257,5.6188195404648775,-16.406017869895695,0.9257301092147828,0.1711483746767044,-0.4871188998222351,jumping
1783090682745468700,7.24246875,-3.6411382420271634,3.7708939182311294,-14.415994391757248,0.6926349997520447,0.1423799395561218,-0.6394492983818054,jumping
1783090682755513600,7.252513671875,-3.29419702796936,2.6573279881909486,-13.615097696077823,0.6356872916221619,0.154598519206047,-0.755515992641449,jumping
1783090682765557500,7.2625576171875,-2.2321190008431673,2.583783444030583,-14.061915580904484,0.8262357711791992,0.3662195801734924,-0.7943992614746094,jumping
1783090682775602700,7.272602783203125,-1.319336924432218,2.114461758711934,-14.930206481420992,1.050587177276611,0.912964403629303,-0.8237462043762207,jumping
1783090682785646600,7.282646484375,-1.437282774246484,1.6911898769065736,-14.235792138385772,1.1516156196594238,1.4228352308273315,-0.8822832703590393,jumping
1783090682795691800,7.29269189453125,-1.5766270936593412,2.0006708366200328,-11.220387501877546,1.1184990406036377,1.7767727375030518,-0.974285364151001,jumping
1783090682805735700,7.302735595703125,-1.1634412831909955,2.695621770749986,-8.073117065143585,1.054989218711853,1.8617762327194216,-1.061023831367493,jumping
1783090682815779600,7.312779541015625,0.135215877838619,3.456870638912916,-4.362446437206864,0.9996436834335328,1.592165470123291,-1.095619559288025,jumping
1783090682825824500,7.322824462890625,1.5795619780674577,3.703771223811805,-1.6903747611314055,0.980738401412964,1.2005369663238523,-1.0520009994506836,jumping
1783090682835868700,7.33286865234375,2.672324774053693,3.2645965472146865,0.433932684290409,0.9546566009521484,0.4994491338729858,-0.9496410489082336,jumping
1783090682845913600,7.34291357421875,3.3064982911378142,1.9741975479751823,2.475978026089072,1.0046133995056152,-0.2162065356969833,-0.9123156070709229,jumping
1783090682855958300,7.352958251953125,2.859022234663367,0.2279863333314657,2.688363470184803,1.1772552728652954,-0.6758058071136475,-0.9955039620399476,jumping
1783090682866003200,7.363003173828125,2.728997678390145,0.4737395017609,3.7122032443314783,1.3557945489883425,-0.95469468832016,-0.9429845213890076,jumping
1783090682876047000,7.373047119140625,2.16661937758103,2.416994506722689,6.297744053423404,1.4137513637542725,-0.9226669669151306,-0.707966148853302,jumping
1783090682886092300,7.38309228515625,1.6698185875758529,2.8658254849374294,9.850517198777196,1.365756273269653,-0.8524710536003113,-0.4409032464027405,jumping
1783090682896136200,7.39313623046875,0.3729972271386533,2.293891858667135,14.538490306091308,1.1390763521194458,-0.8515421152114868,-0.1993715763092041,jumping
1783090682906181400,7.403181396484375,-1.4241050205044448,0.7070037754952907,18.46740094937086,0.7093213796615601,-0.9228779077529908,-0.0266646612435579,jumping
1783090682916225300,7.413225341796875,-2.6738579749703404,-0.7163463349886238,20.499818631124494,0.1541809439659118,-1.089329719543457,-0.0383556708693504,jumping
1783090682926269200,7.423269287109375,-1.967517924080789,-1.842035541281849,20.70546746044159,-0.2834787368774414,-1.3354774713516235,-0.1431169509887695,jumping
1783090682936314400,7.433314453125,-0.4795922829097137,-1.7574331581428646,18.90890903735161,-0.4678099751472473,-1.4417269229888916,-0.1824022978544235,jumping
1783090682946358300,7.443358154296875,0.5322224511940032,-1.071616401452571,15.82166549155712,-0.4679007232189178,-1.3912367820739746,-0.2010335028171539,jumping
1783090682956403200,7.4534033203125,0.5842612659890204,-0.4187786620393395,12.767440418267247,-0.3696985244750976,-1.1318351030349731,-0.2292134761810302,jumping
1783090682966447400,7.463447265625,0.3541564061336219,-0.6197571614578365,10.375927558803555,-0.2274483293294906,-0.7434863448143005,-0.3596852421760559,jumping
1783090682976492300,7.4734921875,0.2961314296010881,-1.235326223576069,8.57344968253672,-0.0741820707917213,-0.1674440950155258,-0.4802135229110718,jumping
1783090682986536200,7.4835361328125,1.0004031497839838,-1.2661157679848372,7.036734035766124,0.0284989904612302,0.3790124654769897,-0.5088315606117249,jumping
1783090682996581400,7.493581298828125,2.0142372974187133,-1.002022786875069,6.330884106481075,-0.0066113243810832,0.907386302947998,-0.4301204979419708,jumping
1783090683006625300,7.503625244140625,2.088249166829884,-1.2870702932082116,5.587158912310004,-0.0154310781508684,1.4051786661148071,-0.3370848596096039,jumping
1783090683016669200,7.513669189453125,1.4440816406063737,-1.9446214710094032,5.338810174429416,-0.0367038734257221,1.7903703451156616,-0.2859082221984863,jumping
1783090683026714400,7.52371435546875,0.7650110702406615,-2.49584417155385,6.1334448871046305,-0.049215879291296,1.9597374200820925,-0.2419085502624511,jumping
1783090683036758300,7.53375830078125,0.4116193283366039,-2.76104818264544,8.000525876185298,-0.0353099182248115,1.8934499025344849,-0.1751785278320312,jumping
1783090683046803200,7.54380322265625,-0.2400400149470195,-3.3569109660357235,9.446956856396794,-0.0994070842862129,1.779538869857788,-0.2352570444345474,jumping
1783090683056847400,7.553847412109375,-0.6343238853402435,-3.88605700545907,10.687159746098516,-0.0158418864011764,1.570595145225525,-0.4438486099243164,jumping
1783090683066892000,7.56389208984375,-0.613846183848381,-3.700557230201363,11.46471648272276,-0.3951374292373657,0.8620744943618774,-0.5790364742279053,jumping
1783090683076936200,7.573936279296875,-1.125050031606853,-3.0587998338595033,9.987751248037814,-0.3524847626686096,0.4823154807090759,-0.748222291469574,jumping
1783090683086981400,7.5839814453125,-1.4391167116753756,-2.716700506874919,8.393369009718299,-0.0995566248893737,0.2354079335927963,-0.9053695797920228,jumping
