time,seconds_elapsed,accel_x,accel_y,accel_z,gyro_x,gyro_y,gyro_z,label
1783088298601690000,0.060690185546875,-0.0975141794212162,0.0114960842654109,0.3903554083704948,0.7308847904205322,-0.4338491857051849,-0.1773474961519241,jumping
1783088298611734300,0.070734375,-0.359784767409414,0.3472857897117734,-0.2350567101091146,0.5547762513160706,-0.326692134141922,-0.1262515485286712,jumping
1783088298621778200,0.080778076171875,-0.7520892640210688,0.4166819820210337,-0.0550654691398143,0.2530364096164703,-0.1566340923309326,0.0549012012779712,jumping
1783088298631823000,0.090822998046875,-0.595418985145539,-0.355535439401865,1.0010855060249566,0.1777600347995758,-0.0369750522077083,0.1503824889659881,jumping
1783088298641866200,0.1008662109375,-0.5017191033154725,-0.3595005436405539,1.5184966839909553,0.2934072911739349,0.0522344522178173,0.1167909726500511,jumping
1783088298651910100,0.11091015625,-0.1693408137477934,0.254901520524919,1.6179308716893197,0.2986317276954651,0.0757961720228195,0.0897559151053428,jumping
1783088298661954000,0.1209541015625,0.702849870686233,0.6389505222275853,1.5266706380963324,0.124454066157341,-0.0429728291928768,0.1362283378839492,jumping
1783088298671998200,0.130998291015625,0.6616951457381248,1.1091887378692626,0.7636626513063908,-0.0440497621893882,-0.1805715560913086,0.2279772311449051,jumping
1783088298682043100,0.141043212890625,-0.3475061544641852,1.4259814819008112,0.0665682754069566,-0.0466926842927932,-0.2180992215871811,0.3869762122631073,jumping
1783088298692087300,0.15108740234375,-0.6440624584138394,1.0511483445718883,-0.0047059857338666,0.1007517576217651,-0.2338254600763321,0.5401251316070557,jumping
1783088298702131200,0.161131103515625,-0.9165902365222572,0.6023004152223468,0.2641103706359863,0.2823005020618438,-0.2654720842838287,0.6733313798904419,jumping
1783088298712175000,0.171175048828125,-1.2297482773132622,0.4630199548259377,0.762018975752592,0.3765214681625366,-0.3413546681404114,0.7913050651550293,jumping
1783088298722219300,0.18121923828125,-1.3124053716033697,0.4233946314021944,1.1537813283115623,0.3566814363002777,-0.4029775261878967,0.8782668709754944,jumping
1783088298732264200,0.19126416015625,-0.875370337383449,0.4534904944583773,1.6432441766440868,0.2674944102764129,-0.4929025173187256,0.913737654685974,jumping
1783088298742308000,0.20130810546875,0.0750939655594527,0.8093386530712247,1.8974597607314585,0.2096638679504394,-0.7566809058189392,0.9220144748687744,jumping
1783088298752352300,0.211352294921875,0.1377189101681113,0.9405492042586208,1.4277543367922303,0.2437710016965866,-1.021514058113098,0.9081768989562988,jumping
1783088298762396200,0.221396240234375,-0.1372491006992757,0.6840498931482434,1.0674316631138323,0.3117346167564392,-1.240178465843201,0.8762908577919006,jumping
1783088298772440300,0.2314404296875,-0.495088286998868,0.5099591083943844,0.7229220601171255,0.3873682916164398,-1.3973567485809326,0.863494336605072,jumping
1783088298782485200,0.2414853515625,-0.5148565250471234,0.4132746577955782,0.1829986060917377,0.4395419955253601,-1.4860858917236328,0.8723525404930115,jumping
1783088298792529200,0.251529052734375,0.0367345704182982,0.5397331921502947,-0.4891717564314603,0.4523816108703613,-1.529465675354004,0.8716456294059753,jumping
1783088298802573300,0.2615732421875,0.6021952012822032,0.8119637408778071,-1.24619657715857,0.4612837731838226,-1.5179603099822998,0.8763285279273987,jumping
1783088298812617000,0.271616943359375,0.8383018588356673,0.760444127651304,-1.9707757568329571,0.4955554902553558,-1.373670220375061,0.8826143741607666,jumping
1783088298822661000,0.2816611328125,0.5220493591606616,0.6245515561275183,-2.4057617495685815,0.5148661136627197,-1.1458191871643066,0.8806945085525513,jumping
1783088298832706300,0.291706298828125,-0.0226139828681945,0.7741518966168165,-2.4712901605337856,0.489717960357666,-0.8536288142204285,0.8983578681945801,jumping
1783088298842750000,0.30175,-0.1748978633530437,1.170449116126448,-1.6791180385798214,0.4536805748939514,-0.5743875503540039,0.9678311944007874,jumping
1783088298852794000,0.311794189453125,0.2636374924272299,1.1184615931272506,-0.6796580879300832,0.3965523540973663,-0.3390673995018005,1.0204747915267944,jumping
1783088298862838300,0.32183837890625,0.7978264944538473,1.002726697360724,0.3636638007998466,0.3263660669326782,-0.225125104188919,1.0643258094787598,jumping
1783088298872883200,0.33188330078125,1.208042495331168,0.8313258823432028,1.088615320917964,0.2872547805309295,-0.2502281665802002,1.0488152503967283,jumping
1783088298882927000,0.341927001953125,1.3050496020130813,0.585382598169148,1.2388316013485192,0.2660991847515106,-0.3403324782848358,0.9678032398223876,jumping
1783088298892971300,0.35197119140625,1.217345453466475,0.4460303877107798,0.758300247490406,0.1756129115819931,-0.342698872089386,0.8471779227256775,jumping
1783088298903015200,0.36201513671875,0.7475313084557652,0.8732926543265581,0.2908499090015888,0.1030763909220695,-0.2723495960235595,0.7929916977882385,jumping
1783088298913059300,0.372059326171875,0.5060159237265587,0.9435277816779912,-0.6031716450989246,0.0207907110452651,-0.1472036242485046,0.7709148526191711,jumping
1783088298923104300,0.382104248046875,0.8261533020108938,0.712549719184637,-1.1537222916007042,-0.0433030538260936,-0.0473814234137535,0.758680522441864,jumping
1783088298933148200,0.392148193359375,0.9417629639625548,0.612869886162132,-1.5680454355359077,-0.0155196264386177,0.0063161617144942,0.7784166932106018,jumping
1783088298943192300,0.4021923828125,0.9910038186021148,0.3206128868415951,-1.9526731139093636,0.0829900205135345,-0.0092247826978564,0.7977249026298523,jumping
1783088298953236200,0.412236328125,1.0039487865015864,0.0268232711263,-2.2219985888451337,0.2581857740879059,-0.0156138502061367,0.7879873514175415,jumping
1783088298963280100,0.422280029296875,0.8946677430495619,-0.0728774585537612,-2.1030694270819423,0.4299735128879547,-0.0304583106189966,0.7577641606330872,jumping
1783088298973325300,0.4323251953125,0.8453956164889037,-0.0327544147409498,-1.861320525857806,0.5260606408119202,-0.0003580544143915,0.7137115001678467,jumping
1783088298983369200,0.442369140625,0.8256184644818305,0.0040001755520701,-1.4698235462367537,0.5221114158630371,0.0642193406820297,0.678942084312439,jumping
1783088298993413000,0.4524130859375,0.3697517424114048,0.3289246419824659,-1.283547525909543,0.4465848207473755,0.1357239037752151,0.6625071167945862,jumping
1783088299003457000,0.46245703125,0.805280755982548,0.778448863158375,-1.0843038874596356,0.3670503199100494,0.1503907293081283,0.663124680519104,jumping
1783088299013501200,0.472501220703125,1.5423463461339473,1.1979784896954893,-0.9439934994935988,0.406700074672699,0.055477075278759,0.6681490540504456,jumping
1783088299023546000,0.482546142578125,1.848913902618736,1.6755327274389564,-1.157978780001402,0.5611748695373535,-0.0988150313496589,0.6592418551445007,jumping
1783088299033590000,0.492590087890625,1.657694580670446,1.900842388907075,-1.46783441824615,0.7488305568695068,-0.1756250262260437,0.6454905271530151,jumping
1783088299043634200,0.50263427734375,1.3976489752553405,1.968063721395284,-1.3102812190562485,0.8160247802734375,-0.0834373086690902,0.6708521246910095,jumping
1783088299053678300,0.51267822265625,1.135362605176121,1.9461793679758903,-0.430986109444499,0.7302775979042053,0.0721393823623657,0.7107649445533752,jumping
1783088299063723000,0.522722900390625,0.8866720681205391,1.926976362594962,0.5216857865452766,0.5468672513961792,0.2078032046556472,0.7666996121406555,jumping
1783088299073767200,0.53276708984375,1.0649281558603048,1.9680936781421303,1.1741752970427275,0.3636005818843841,0.3378143608570099,0.8255570530891418,jumping
1783088299083811300,0.542811279296875,1.580363795969635,2.171477923528105,1.7348685673743485,0.2525313198566437,0.3977400362491607,0.9034188389778136,jumping
1783088299093855200,0.552855224609375,1.8445123066589235,2.315355940847844,2.1520301496058702,0.2466499209403991,0.4204456210136413,0.981287121772766,jumping
1783088299103899100,0.562899169921875,1.9662138557448985,2.201147962387651,2.960003651803732,0.3366181850433349,0.4168977439403534,1.0487008094787598,jumping
1783088299113944300,0.5729443359375,2.314932016347349,1.9988130799241364,4.456872441354394,0.4394457936286926,0.3099526464939117,1.135035753250122,jumping
1783088299123988200,0.58298828125,2.4764970815271137,1.5393901266768577,6.186292680194974,0.4809626340866089,0.0434205345809459,1.216123342514038,jumping
1783088299134032100,0.5930322265625,2.170799001353234,0.537549856761843,7.700811692726612,0.4157992601394653,-0.3537848889827728,1.2000402212142944,jumping
1783088299144076000,0.603075927734375,0.7098685172766447,-0.9857727860808372,8.45459417053163,0.246490404009819,-0.6749844551086426,1.003874659538269,jumping
1783088299154120200,0.6131201171875,-1.1983715806663036,-2.6480758834600446,8.742094769105314,-0.0125529561191797,-0.7822893261909485,0.6081675887107849,jumping
1783088299164165400,0.623165283203125,-1.904263449396938,-4.3170670803010465,8.546115685409307,-0.3071092367172241,-0.724416971206665,0.0899822264909744,jumping
1783088299174209000,0.633208984375,-1.5816361539930104,-5.458924162063003,7.609817416593432,-0.4499888718128204,-0.6913322806358337,-0.4569751620292663,jumping
1783088299184253200,0.643253173828125,-1.161362431090325,-5.650477246010303,6.187320854198933,-0.422781229019165,-0.6102752685546875,-0.9906308054924012,jumping
1783088299194297000,0.653297119140625,-0.4446642139241099,-5.610924403300881,4.931442256459594,-0.357518196105957,-0.4721021652221679,-1.4759562015533447,jumping
1783088299204341200,0.66334130859375,0.5146570569522678,-5.1929216940701,4.431624018329382,-0.2866189777851105,-0.3327291011810303,-1.8402225971221924,jumping
1783088299214386200,0.67338623046875,0.7777753478109836,-4.724641334497928,4.1867765665680166,-0.2125272452831268,-0.1747424155473709,-2.099036455154419,jumping
1783088299224430000,0.68343017578125,0.3432597490660846,-4.362125826950371,3.9462218435645102,-0.1448763012886047,0.0406412668526172,-2.254379987716675,jumping
1783088299234474200,0.69347412109375,-0.6129144559562206,-3.6169331905752418,3.771398945143819,-0.1694956570863723,0.2015033066272735,-2.266071319580078,jumping
1783088299244518400,0.703518310546875,-1.5146853090092538,-2.4006419223368165,3.1483658307552336,-0.2634759247303009,0.2640116810798645,-2.0126802921295166,jumping
1783088299254562000,0.71356201171875,-1.7838626076459885,-1.4397121933504935,1.2054612466663122,-0.2556548714637756,0.2009958326816558,-1.5520294904708862,jumping
1783088299264607200,0.723607177734375,-1.946672412189841,-1.4638319046065211,-1.268455755239725,-0.1361308693885803,0.0116591937839984,-0.9910935163497924,jumping
1783088299274651400,0.7336513671875,-1.5680463123187425,-1.642278400351852,-4.118478690889478,-0.0108720231801271,-0.2222592979669571,-0.4686196446418762,jumping
1783088299284695000,0.743695068359375,-1.1045949803382158,-0.7365503341056406,-7.867915979593992,0.282380610704422,-0.2570207417011261,0.0455842763185501,jumping
1783088299294739200,0.7537392578125,-0.2387874210700392,0.4912820265837013,-10.870975513792038,0.7227078676223755,-0.0763209536671638,0.4898862540721893,jumping
1783088299304784400,0.763784423828125,1.0339376820519566,0.5631659440554678,-10.48219130026102,1.07263445854187,-0.0908069536089897,0.7298652529716492,jumping
1783088299314828000,0.773828125,0.5906693064004183,0.6468202326893806,-9.12442878358364,1.138520359992981,-0.3306559026241302,0.7839707732200623,jumping
1783088299324872200,0.7838720703125,-0.968452817967534,1.7866244735747574,-8.061713627597689,0.9468849301338196,-0.6497319340705872,0.7866957187652588,jumping
1783088299334916000,0.793916015625,-1.872993720255792,3.000418372039497,-7.363079036518931,0.656904399394989,-1.0356943607330322,0.7857174873352051,jumping
1783088299344960300,0.803960205078125,-2.7977260544404388,3.3726293441712856,-8.340683129191397,0.3446711301803589,-1.3372366428375244,0.7475096583366394,jumping
1783088299355005200,0.814005126953125,-3.5154055377289652,2.516557289236784,-11.22237604534626,-0.0306846983730793,-1.3834434747695925,0.5619493126869202,jumping
1783088299365049000,0.824049072265625,-4.379508631166815,1.8508415096804496,-15.6237884652853,-0.4254053831100464,-0.9634690284729004,0.3040072321891784,jumping
1783088299375093200,0.83409326171875,-4.527614787575602,0.847171540120244,-18.862327318918705,-0.6001898646354675,-0.2003100216388702,0.0033977201674133,jumping
1783088299385137200,0.84413720703125,-4.25980380885601,-0.7533148602932691,-18.923799147969483,-0.582821249961853,0.5425811409950256,-0.3296681344509125,jumping
1783088299395181000,0.85418115234375,-4.24663745329082,-1.5197931535422802,-16.94328350288868,-0.4969759881496429,1.0199142694473269,-0.6255440711975098,jumping
1783088299405226200,0.864226318359375,-4.061674561388791,-1.1264105063050984,-14.689744697397948,-0.4575510621070862,1.3286564350128174,-0.7926294803619385,jumping
1783088299415270100,0.874270263671875,-3.733413790142536,-0.275534997100383,-12.762913880753516,-0.4424815475940704,1.559653639793396,-0.7898549437522888,jumping
1783088299425314300,0.884314208984375,-2.9277836362004277,0.3128966133758425,-10.732815581858157,-0.3655470907688141,1.6610913276672363,-0.6566205024719238,jumping
1783088299435358200,0.894358154296875,-1.8321803560912608,0.5147888666383922,-8.7368416708827,-0.2173811942338943,1.572614312171936,-0.4152454733848572,jumping
1783088299445402000,0.904402099609375,-0.4920877900086343,0.6464528606817126,-6.822986655667424,-0.0370297990739345,1.3510996103286743,-0.1147756651043891,jumping
1783088299455447300,0.914447265625,0.7063122860997915,0.933622035343945,-4.73685491938293,0.1436477899551391,1.0083264112472534,0.2119000703096389,jumping
1783088299465491200,0.9244912109375,1.4238152437776326,0.9260960237532854,-2.529665777134895,0.3351133465766907,0.6465057134628296,0.5308796167373657,jumping
1783088299475535000,0.93453515625,1.7237616285569966,0.9764018772758544,0.0522340451061725,0.528965175151825,0.3321305811405182,0.789976179599762,jumping
1783088299485579300,0.944579345703125,1.649186864566058,1.4768218806914983,3.0314860027372834,0.6593202352523804,-0.004307881463319,0.985564112663269,jumping
1783088299495624200,0.954624267578125,1.3641300058826804,2.439539808268845,5.932717732098698,0.72907555103302,-0.3245186805725097,1.171945333480835,jumping
1783088299505668000,0.964668212890625,1.0836750880368051,3.3302956385716795,8.540912271547317,0.7447873950004578,-0.6952030062675476,1.3595712184906006,jumping
1783088299515712300,0.974712158203125,1.1061465936943888,3.4110999446019528,10.251849928236007,0.7201014161109924,-1.0119569301605225,1.4837714433670044,jumping
1783088299525756200,0.984756103515625,1.3482321795269847,2.4487159251540898,11.793388465118408,0.6292612552642822,-1.2842081785202026,1.48102068901062,jumping
1783088299535800300,0.99480029296875,1.472939047908783,1.4147988474987447,12.8325468044281,0.4366851150989532,-1.4644285440444946,1.3580213785171509,jumping
1783088299545845200,1.00484521484375,1.6723647649273274,0.682437489515543,13.80434250308275,0.1939480900764465,-1.603854775428772,1.1268634796142578,jumping
1783088299555889200,1.01488916015625,2.0239090888664126,0.2924655275046825,14.21673672478199,-0.0451311096549034,-1.6879112720489502,0.8408249616622925,jumping
1783088299565933300,1.024933349609375,1.9742273585915564,-0.0941746597349643,14.29976689016819,-0.2523322403430938,-1.652729868888855,0.5792248249053955,jumping
1783088299575977000,1.03497705078125,1.8669822048813105,-0.5479217593029141,14.020243846344949,-0.4109306335449219,-1.470017433166504,0.3233639299869537,jumping
1783088299586021000,1.045021240234375,2.1115885413631794,-0.9410422484725712,13.208090428113936,-0.5211455821990967,-1.1622246503829956,0.0836674571037292,jumping
1783088299596066300,1.05506640625,2.807089218330383,-1.2781675864368676,12.092442723363638,-0.5978634357452393,-0.766404390335083,-0.1289425045251846,jumping
1783088299606110200,1.065110107421875,3.4434392026707528,-1.6867409346736966,10.850371117180584,-0.6094478964805603,-0.3444845676422119,-0.3158703148365021,jumping
1783088299616154000,1.075154052734375,3.482935346756875,-2.2009224830687044,9.4153482506901,-0.557931125164032,0.1307947039604187,-0.4759683012962341,jumping
1783088299626198300,1.0851982421875,2.9996894732430577,-2.6134242567956445,8.239793481987714,-0.49292653799057,0.6635978817939758,-0.5592381954193115,jumping
1783088299636242200,1.0952421875,2.5909678025767207,-3.033008682259917,7.324208330854773,-0.4398516416549682,1.2296851873397827,-0.5715531706809998,jumping
1783088299646287400,1.105287353515625,2.502116675952077,-3.3359318908929825,6.654926675510406,-0.3827553391456604,1.7876123189926147,-0.5646233558654785,jumping
1783088299656331500,1.11533154296875,2.7014403939008713,-3.275376007643342,6.387065427908301,-0.2927004396915436,2.2737812995910645,-0.5292648077011108,jumping
1783088299666375400,1.12537548828125,2.7940318760976193,-2.816653165489435,6.709234019759297,-0.1914148032665252,2.538445472717285,-0.4230770766735077,jumping
1783088299676419600,1.135419677734375,2.7209643017992375,-2.1844158771649003,7.410087455931305,-0.1181715726852417,2.6419014930725098,-0.22854545712471,jumping
1783088299686463500,1.14546337890625,2.560936529189348,-2.0365189795926213,8.439984045898914,-0.0700226873159408,2.488949775695801,-0.0014334777370095,jumping
1783088299696508400,1.15550830078125,2.378284398447722,-1.928800070890784,9.143568952861427,-0.0945326536893844,2.118180274963379,0.2247483730316162,jumping
1783088299706552600,1.165552490234375,1.7194132240891455,-1.612279860190302,9.215844499999283,-0.2065888792276382,1.6755642890930176,0.4232417345046997,jumping
1783088299716596500,1.175596435546875,1.7310875875309109,-1.7367612492531537,9.48614495744705,-0.3288404941558838,1.1866086721420288,0.5546622276306152,jumping
1783088299726640400,1.185640380859375,1.425788735807687,-2.1830495572477577,9.426981405338644,-0.3593890964984894,0.5571466088294983,0.6198766827583313,jumping
1783088299736685600,1.195685546875,0.6467984592489898,-2.4212726224333045,8.498580611774324,-0.2574488520622253,-0.0361807346343994,0.6184501051902771,jumping
1783088299746729700,1.205729736328125,0.1177076571442186,-1.9569455305315553,7.344266199499368,-0.0527319088578224,-0.3994777202606201,0.5920687913894653,jumping
1783088299756773400,1.2157734375,1.5088735539905729,-0.4017949401430785,7.078297049254179,0.082296498119831,-0.7453945279121399,0.6155412793159485,jumping
1783088299766817500,1.225817626953125,3.669292907887697,1.6392809721015391,7.279303021201491,0.0198024939745664,-1.1782286167144775,0.7280970811843872,jumping
1783088299776861400,1.235861328125,0.6077310619689524,2.737845586234331,5.393011720216274,-0.167118027806282,-1.4573373794555664,0.9329179525375366,jumping
1783088299786906400,1.24590625,-3.3810306772917507,2.8412165288597344,1.6322101569324732,-0.132896676659584,-1.45514714717865,1.207625389099121,jumping
1783088299796950500,1.255950439453125,-2.5592145277023315,2.5535411582410332,-2.3012843070060014,0.1411096453666687,-1.4037361145019531,1.4560065269470217,jumping
1783088299806994400,1.265994384765625,-4.500564283564686,2.0863439177304506,-8.840843897148966,0.3924883604049682,-0.7223815321922302,1.5074914693832395,jumping
1783088299817038600,1.27603857421875,-6.381740433493256,0.8884915386326611,-16.540482454442976,0.282636433839798,0.8536144495010376,1.2335820198059082,jumping
1783088299827082500,1.28608251953125,-3.1855209646731613,1.5072605658359826,-24.09214987988472,-0.0829809680581092,3.1535613536834717,0.949065327644348,jumping
1783088299837127400,1.29612744140625,-0.2302586621776223,1.436541746620834,-29.112657490241524,-0.4903754293918609,5.482258319854736,0.3641006052494049,jumping
1783088299847171600,1.306171630859375,-0.2627294376716018,-1.6522978361934422,-25.485432622754573,-0.9146196246147156,6.011022090911865,-0.3694769740104675,jumping
1783088299857215500,1.316215576171875,-1.4557937057100236,-0.7607870958700775,-19.46672295285463,-0.7845765948295593,4.731571197509766,-0.7072685360908508,jumping
1783088299867259400,1.32625927734375,-1.723829725357145,0.6096631990753114,-17.668700886952877,-0.2467627078294754,2.717442035675049,-0.5336775779724121,jumping
1783088299877303600,1.336303466796875,-1.5696921798296273,-1.0824448155894877,-18.200844939148425,0.3416299223899841,0.4290064573287964,-0.431181937456131,jumping
1783088299887348500,1.346348388671875,-0.160762681022007,-2.398039923144877,-22.053094367551804,0.6536115407943726,-1.244166374206543,-0.5560958981513977,jumping
1783088299897392400,1.356392333984375,1.5935741368070244,-2.372445317030698,-25.56164258673191,0.4660583436489105,-2.007256269454956,-0.7122631669044495,jumping
1783088299907436500,1.3664365234375,1.3811666270099578,-1.492789703543484,-26.438759767782688,0.2024189531803131,-2.1378841400146484,-0.8391329646110535,jumping
1783088299917480400,1.37648046875,0.118107397051528,0.7084503210417926,-23.64919451570511,0.1763194054365158,-1.9455372095108032,-0.7203935384750366,jumping
1783088299927524600,1.386524658203125,-0.4426415855227038,2.8121798194676635,-18.332596173083783,0.5201579928398132,-1.7099236249923706,-0.49623504281044,jumping
1783088299937569500,1.396569580078125,-0.8890063562870025,4.100758325281739,-14.056832578551768,0.829003095626831,-1.4605032205581665,-0.199427530169487,jumping
1783088299947613400,1.406613525390625,-0.6151867848023772,4.379360162606835,-10.768894610977172,0.7809058427810669,-0.8069266676902771,0.0266551356762647,jumping
1783088299957657600,1.41665771484375,-0.1238925563242286,5.280884639683365,-5.7237254375725986,0.4668344557285309,-0.2932926714420318,0.2902159094810486,jumping
1783088299967701500,1.426701416015625,1.5050734310552476,6.0243316014349455,-0.808765529358387,0.0340521261096,-0.1602027863264084,0.5895224213600159,jumping
1783088299977746400,1.436746337890625,2.927498097257316,6.178021695455908,2.5508295611947776,-0.2486869692802429,-0.4511052668094635,0.92729514837265,jumping
1783088299987790600,1.44679052734375,3.3185417801529167,5.564796273854374,3.773931093969941,-0.078122429549694,-0.942541778087616,1.237912654876709,jumping
1783088299997834500,1.45683447265625,3.0417773873880503,4.5661140295788645,4.747914658057689,0.4211211502552032,-1.588118314743042,1.410214900970459,jumping
1783088300007878700,1.466878662109375,1.580991718609631,3.397841526839137,5.7542024089008565,0.8570417165756226,-1.969537138938904,1.4328347444534302,jumping
1783088300017922300,1.47692236328125,-0.3376462930984795,2.037977215576917,8.503611007156968,0.9348402619361876,-2.066291332244873,1.2536540031433103,jumping
1783088300027967500,1.486967529296875,-1.4895461915776134,0.6169931035719811,12.2423468691051,0.6836623549461365,-2.152662515640259,0.9040554165840148,jumping
1783088300038011600,1.49701171875,-1.4816010777920483,-0.181021168538928,15.167338828760384,0.296403706073761,-2.2485556602478027,0.4822622537612915,jumping
1783088300048055300,1.50705517578125,-0.5361535800978541,0.0757983144365251,17.03244413385391,-0.078839436173439,-2.370765447616577,0.1400522142648697,jumping
1783088300058099500,1.517099365234375,0.8398731998056173,0.5046273919776082,17.230106056070326,-0.3688538670539856,-2.4207396507263184,-0.0847506076097488,jumping
1783088300068143600,1.5271435546875,2.1709709969192743,0.619395488538593,16.056877099967004,-0.6380240321159363,-2.2745237350463867,-0.1838039457798004,jumping
1783088300078188500,1.5371884765625,3.1504940749555823,0.6263150586687029,14.373132570630313,-0.9007275700569152,-2.038208246231079,-0.1573740839958191,jumping
1783088300088232400,1.547232421875,3.876161634388566,0.4009641884073615,12.09045885607004,-1.0054975748062134,-1.7597813606262207,-0.0691273063421249,jumping
1783088300098276600,1.557276611328125,3.8232159338817,-0.2568025318406522,9.582170213484764,-0.8360645771026611,-1.3746742010116575,0.0365310981869697,jumping
1783088300108320500,1.567320556640625,3.311901903747022,-1.2664549368113278,7.863855890548229,-0.4241494834423065,-0.8505358099937439,0.1321705281734466,jumping
1783088300118364700,1.57736474609375,2.850197123172879,-2.4116375097341836,6.990913364833593,0.0456667095422744,-0.2299991250038147,0.168125495314598,jumping
1783088300128409600,1.58740966796875,2.191393607223034,-3.176373781621456,6.274535027271509,0.3617634177207947,0.4772474765777588,0.1375116556882858,jumping
1783088300138453500,1.59745361328125,1.670314262138307,-3.522010342821478,5.685141147634386,0.3856219947338104,1.2539055347442627,0.0797435939311981,jumping
1783088300148497700,1.60749755859375,1.8551432985275984,-3.614823943336307,5.753119874361157,0.1941723972558975,1.9352853298187256,0.0642967224121093,jumping
1783088300158541600,1.61754150390625,2.4107398302420973,-3.618053719037771,6.182893100884557,-0.0066095702350139,2.4823763370513916,0.0814436823129654,jumping
1783088300168585500,1.62758544921875,2.7541613457411525,-3.607836568666994,7.178130465403199,-0.1769767850637436,2.696514368057251,0.0408432558178901,jumping
1783088300178630700,1.637630615234375,3.229565858104825,-3.603637071150541,8.352222175815701,-0.32886803150177,2.593027114868164,-0.0442810878157615,jumping
1783088300188674600,1.647674560546875,2.522814011543989,-3.656200494341552,9.39662659908533,-0.5076544880867004,2.304285764694214,-0.1289802640676498,jumping
1783088300198718500,1.657718505859375,1.3472957754597068,-4.413115717214346,10.322911423408984,-0.6784198880195618,1.9094698429107664,-0.2243743985891342,jumping
1783088300208762400,1.667762451171875,0.5253871252812445,-4.803972937627137,10.909703596115111,-0.7261689901351929,1.3568964004516602,-0.264168381690979,jumping
1783088300218807600,1.6778076171875,0.4503934052258729,-4.430987766252458,10.437574744421244,-0.57085120677948,0.7348443269729614,-0.1657296866178512,jumping
1783088300228851500,1.6878515625,1.0449629339352249,-4.0584687510848045,9.506773903977871,-0.2491690665483474,0.2026475518941879,-0.0156730823218822,jumping
1783088300238895400,1.697895263671875,1.8994262384988367,-3.6553003306314342,8.795398489269614,0.0927972942590713,-0.2179442644119262,0.1208976060152053,jumping
1783088300248939500,1.707939453125,2.443386108433455,-2.8610002567380666,7.849083853352069,0.361150711774826,-0.4542910158634186,0.2403201311826706,jumping
1783088300258983700,1.717983642578125,2.7007591336384413,-1.5911217752188442,7.182012859794497,0.4842295050621032,-0.4445409178733825,0.3732688426971435,jumping
1783088300269028400,1.7280283203125,2.165861983342469,0.1080612923987209,7.292965635851025,0.4343242645263672,-0.2646752893924713,0.5703617334365845,jumping
1783088300279072500,1.738072509765625,1.1465209819197657,1.0495791955590248,7.966063634613156,0.2368644177913665,-0.1236423701047897,0.7654521465301514,jumping
1783088300289116700,1.74811669921875,-0.0563667609967291,0.9797872819304466,8.007699713337422,0.077726162970066,-0.0241032633930444,0.9234950542449952,jumping
1783088300299160600,1.75816064453125,-1.5294702056869864,1.1645888457909226,6.686378044828772,0.0114660933613777,-0.0352265946567058,1.0718005895614624,jumping
1783088300309204500,1.76820458984375,-0.5969540857583284,2.0296676523931323,5.2628106383323665,0.0429419912397861,-0.1346953809261322,1.2154568433761597,jumping
1783088300319249700,1.778249755859375,2.805897962719202,3.390612160107493,4.239593964520097,-0.0001509741414338,-0.3332298696041107,1.3899227380752563,jumping
1783088300329293600,1.78829345703125,2.914115176331997,4.76503413516283,0.8643366099327802,-0.051072746515274,-0.2387577146291732,1.5474250316619873,jumping
1783088300339337500,1.79833740234375,-1.2154973413817585,4.9826545573025935,-3.9662025553196663,-0.0583260841667652,0.6525044441223145,1.5786492824554443,jumping
1783088300349381400,1.80838134765625,-2.7375790442526338,3.011605244225263,-5.695829714909196,-0.2522734701633453,1.7062368392944336,1.5308619737625122,jumping
1783088300359425500,1.818425537109375,-2.377800268192589,1.3779713380999865,-6.916855610454082,-0.4147549271583557,2.3529629707336426,1.268888235092163,jumping
1783088300369470700,1.828470703125,-2.225565925937891,0.9475231349244714,-11.01155302826166,-0.5165622234344482,2.454106092453003,0.8109039068222046,jumping
1783088300379514400,1.838514404296875,-1.053816102476418,-2.679767199014127,-16.7382799857378,-0.6399218440055847,2.1764209270477295,0.1568767875432968,jumping
1783088300389558500,1.84855859375,-0.7426160638853907,-7.03461514391601,-21.907950568079947,-0.6058269739151001,1.7839198112487793,-0.8734011650085449,jumping
1783088300399602400,1.8586025390625,1.8978303476095195,-3.5167923159122463,-21.368139926779268,-0.484213262796402,0.5738712549209595,-1.4488029479980469,jumping
1783088300409647400,1.8686474609375,1.2757710466891523,-0.0872831466555595,-20.70687265106439,-0.1140090972185134,-0.7169069647789001,-1.912245750427246,jumping
1783088300419691500,1.87869140625,-2.786746395264566,0.5144353770256043,-20.71337019639015,0.2018292546272277,-1.2583328485488892,-2.391974449157715,jumping
1783088300429735400,1.8887353515625,-5.1180233972132205,0.9617135728403924,-17.255304794734716,0.3144737780094147,-1.3917067050933838,-2.6734604835510254,jumping
1783088300439779600,1.898779541015625,-6.202139653146267,0.7903767629697919,-17.008115163761378,0.2046169936656952,-1.0407835245132446,-2.724900960922241,jumping
1783088300449823700,1.90882373046875,-4.2061765558257695,1.597345472039282,-18.92787092745304,-0.1902363151311874,-0.3163285255432129,-2.5746817588806152,jumping
1783088300459868400,1.918868408203125,-2.367056463599205,1.5902008609816431,-20.576507903051375,-0.6691933870315552,0.4792215824127197,-2.4007627964019775,jumping
1783088300469912600,1.92891259765625,-0.969316814385727,1.4054980813205242,-21.27046631901264,-0.9872645735740662,1.1430803537368774,-2.159637451171875,jumping
1783088300479956700,1.938956787109375,1.1676105316996577,3.3876617858693003,-22.195376347851752,-0.8885471224784851,1.6746606826782229,-1.7179747819900513,jumping
1783088300490000400,1.94900048828125,1.7696905821695923,5.0115205863028764,-22.114160538411134,-0.5624331831932068,2.1651337146759033,-1.2094966173171997,jumping
1783088300500044500,1.95904443359375,1.7337436549976466,4.975423437005281,-18.23007103363275,-0.2120918184518814,2.412954807281494,-0.8678388595581055,jumping
1783088300510089500,1.96908935546875,1.3476101021058855,4.936827456629276,-12.910070773613452,0.0187107659876346,2.3217787742614746,-0.6397244334220886,jumping
1783088300520133400,1.97913330078125,1.45154350091964,5.7688353298872705,-8.287384669724107,0.2579406201839447,1.899086833000183,-0.2814949154853821,jumping
1783088300530177500,1.989177490234375,1.4263389170363543,6.644095484894514,-3.743061908453703,0.501680850982666,1.151568055152893,0.1476596295833587,jumping
1783088300540221400,1.999221435546875,1.5504806988812982,6.365453900080919,0.4051443967014551,0.6546705961227417,0.257268339395523,0.4777959585189819,jumping
1783088300550265600,2.009265625,1.9325496326826512,4.927062433940172,3.035254415360093,0.6753425598144531,-0.551895022392273,0.624911367893219,jumping
1783088300560310500,2.019310546875,0.8992048019573092,3.8500598094046112,5.502881377211213,0.7318577766418457,-1.1298648118972778,0.6445324420928955,jumping
1783088300570354400,2.0293544921875,-0.8832748268976807,3.0189515153348445,8.030701234218478,0.6729465126991272,-1.4637490510940552,0.5341790318489075,jumping
1783088300580398600,2.039398681640625,-2.789800522138178,1.7085346872001883,11.981721417975423,0.5284859538078308,-1.9026072025299072,0.326865941286087,jumping
1783088300590442500,2.0494423828125,-3.2406805418372153,1.028070397453755,13.405614403164384,0.2839251756668091,-2.1366114616394043,0.1185002252459526,jumping
1783088300600486400,2.059486328125,-3.4741374155342575,-0.0425664914421737,17.1403725936532,0.1287587881088256,-2.635240316390991,0.0252605490386486,jumping
1783088300610531600,2.069531494140625,-2.752041869369149,-0.6365390771716832,17.798319785034657,-0.1442524939775467,-3.154249906539917,-0.0183974485844373,jumping
1783088300620575500,2.079575439453125,-1.1973824234984811,-1.3122884672254322,17.314764699441195,-0.407929390668869,-3.664549827575683,-0.0464607737958431,jumping
1783088300630619600,2.08961962890625,0.6598449878267943,-1.9983317261479792,15.61666548153758,-0.5297631621360779,-4.017411231994629,-0.0875120759010315,jumping
1783088300640663600,2.09966357421875,2.4145972363226114,-2.6837536383017895,13.60050101544857,-0.4782206118106842,-4.226716995239258,-0.1413089483976364,jumping
1783088300650710000,2.1097099609375,3.4266488113895055,-3.358578899247944,11.549212629008291,-0.262748509645462,-4.14417028427124,-0.1963399797677993,jumping
1783088300660754000,2.11975390625,3.931894919787347,-3.6995436692446466,9.510848021548986,-0.0327897891402244,-3.6570827960968018,-0.2479511350393295,jumping
1783088300670798000,2.129798095703125,4.184441401618719,-3.527300265923142,7.945046565547585,0.0913159176707267,-2.7609639167785645,-0.2718383371829986,jumping
1783088300680842000,2.139842041015625,3.8816792287662625,-3.032912236148119,6.977461178064346,0.0854635313153266,-1.670526385307312,-0.2283708453178405,jumping
1783088300690886100,2.14988623046875,3.2809844951748848,-2.4641882195740936,6.104601069936156,0.0743962302803993,-0.4278368055820465,-0.1019564345479011,jumping
1783088300700930000,2.159929931640625,3.0054078508898616,-2.3275264172434804,5.939143965753913,0.1248822137713432,0.7062621712684631,0.0676745176315307,jumping
1783088300710975000,2.16997509765625,3.1725103841915723,-2.37194759664163,6.056193305119872,0.1877732872962951,1.627318263053894,0.2521082758903503,jumping
1783088300721019100,2.18001904296875,3.0454511074647304,-2.6989836483985186,6.516873711082339,0.1442197859287262,2.2518868446350098,0.3911339342594147,jumping
1783088300731063000,2.19006298828125,2.564092655132711,-3.3899756157696244,7.35522832301855,0.0026173768565058,2.575554132461548,0.4325197041034698,jumping
1783088300741107000,2.20010693359375,1.951036452618241,-4.0700525136336685,7.952601510971784,-0.1485327333211898,2.7265663146972656,0.3980705738067627,jumping
1783088300751152000,2.210152099609375,1.4212186514131724,-4.073262707851827,8.692188290163875,-0.26909139752388,2.7001867294311523,0.3746576309204101,jumping
1783088300761195800,2.22019580078125,0.6793532597646117,-3.6090284088000657,9.44465442467332,-0.3603141009807586,2.5833356380462646,0.3725014626979828,jumping
1783088300771240000,2.230239990234375,0.3176533063836395,-2.9097496745988725,10.217663580995795,-0.4646575450897217,2.434349536895752,0.3780222237110138,jumping
1783088300781284000,2.2402841796875,0.6076942370899021,-2.15493989957273,10.658459721314909,-0.5961377620697021,2.171513795852661,0.4432233273983001,jumping
1783088300791328000,2.250327880859375,1.133581274717301,-1.8658263128444552,10.277494072580335,-0.6482893824577332,1.7917357683181765,0.5710731744766235,jumping
1783088300801373000,2.260373046875,1.7758114031374457,-1.6152154752507806,9.215250625759362,-0.5287668704986572,1.3755290508270264,0.7320364713668823,jumping
1783088300811417000,2.2704169921875,2.0682054728411137,-1.2240429052785038,8.033740163522959,-0.3142508566379547,1.0259464979171753,0.8799039125442505,jumping
1783088300821461000,2.2804609375,2.553708331501484,-0.7120084519147872,8.135951414719223,-0.1638998687267303,0.669440507888794,0.9681814312934875,jumping
1783088300831505200,2.290505126953125,2.8426529914036394,-0.1675309878468513,8.788926662907004,-0.1802407652139663,0.1851886063814163,1.0655440092086792,jumping
1783088300841548800,2.300548828125,1.7302552283599972,0.4161284397915005,8.817963372299074,-0.2714073657989502,-0.3069769740104675,1.2095986604690552,jumping
1783088300851594000,2.310593994140625,-0.7826849663581699,0.6157283443331718,8.145556862932443,-0.3281334936618805,-0.7470539212226868,1.3326374292373655,jumping
1783088300861638100,2.32063818359375,-3.5491952868670222,0.6880316562607884,6.980949604701996,-0.2514023780822754,-1.1311228275299072,1.4209001064300537,jumping
1783088300871682000,2.33068212890625,-4.719137184123695,0.3673515494018793,5.675181479156017,-0.0665052309632301,-1.5549603700637815,1.381117820739746,jumping
1783088300881726000,2.340725830078125,-2.9333734190315006,1.0577721466258168,4.640867657268047,0.0547655299305915,-2.158853530883789,1.1709327697753906,jumping
1783088300891770000,2.35077001953125,-1.309521340599656,3.419631918364763,1.940934160798788,0.1287896931171417,-2.688108205795288,1.020417332649231,jumping
1783088300901815000,2.36081494140625,-3.35078050045669,5.533903122940659,-2.8821359837472436,0.1393524557352066,-2.7245113849639893,0.98631751537323,jumping
1783088300911859000,2.37085888671875,-3.3903128848999735,6.299545549887418,-6.234903274106979,-0.0872750878334045,-2.1819372177124023,0.996026337146759,jumping
1783088300921903000,2.380903076171875,-2.890827824246883,7.016520099776983,-9.256281139805912,-0.5161243677139282,-1.364535927772522,1.1386287212371826,jumping
1783088300931947000,2.390947021484375,-2.3609677913352844,5.62168837389946,-16.899348499572277,-0.8681401610374451,0.1414505094289779,1.097638487815857,jumping
1783088300941992000,2.400991943359375,2.2776256373904644,-1.0913105513513088,-24.392367336690423,-1.3630424737930298,1.8559759855270384,0.4714996218681335,jumping
1783088300952035800,2.411035888671875,6.546584374213218,-6.295716931509971,-21.533517535984515,-1.6087225675582886,2.0281457901000977,-0.5809230208396912,jumping
1783088300962080000,2.421080078125,4.041090038521587,-8.251686164355277,-17.489457249480484,-0.9946056604385376,0.998785436153412,-1.8712011575698853,jumping
1783088300972124200,2.431124267578125,-2.2293923523582517,-8.052060833111405,-15.583554654574394,-0.2860066592693329,-0.177979975938797,-2.803229808807373,jumping
1783088300982168000,2.44116796875,-8.776927013033628,-4.8266269602447744,-15.16667247380614,-0.0202906318008899,-0.946333646774292,-3.1767020225524902,jumping
1783088300992213000,2.451212890625,-10.572953521203994,-1.113197681249678,-13.941938955914974,0.1191554144024849,-1.3918378353118896,-3.13525390625,jumping
1783088301002257200,2.461257080078125,-9.946469974100587,3.427995257562398,-18.92431235818863,-0.3984091579914093,-0.9474071860313416,-2.9232823848724365,jumping
1783088301012301000,2.471301025390625,-6.366611253422498,6.200258077183365,-21.907005980706213,-1.2414766550064087,-0.1061287447810173,-2.5781564712524414,jumping
1783088301022345000,2.481344970703125,-2.211582116509974,6.59374710740447,-20.151490346622467,-1.5507893562316897,0.2207836061716079,-2.022216558456421,jumping
1783088301032388900,2.491388916015625,-0.1868146572485566,4.87911702593863,-20.141698435926436,-1.151835322380066,0.2950221300125122,-1.356609582901001,jumping
1783088301042434000,2.50143408203125,-0.4941673727616667,3.753900405593216,-22.61228541662693,-0.5507376194000244,0.8219349384307861,-0.6454567909240723,jumping
1783088301052478000,2.51147802734375,0.5283339923880994,3.7621491785004735,-22.85061603384018,-0.1840046644210815,1.5030351877212524,-0.0934871062636375,jumping
1783088301062521900,2.52152197265625,1.9402059926547108,3.7781755996719,-19.306326639193298,-0.0042733820155262,1.8639601469039917,0.2672640085220337,jumping
1783088301072566000,2.53156591796875,1.5026608169555664,4.3745062928348775,-14.453968440842628,0.1357534974813461,1.9040616750717163,0.6232708692550659,jumping
1783088301082610200,2.541610107421875,0.3776196993075311,4.274547789001464,-9.007208179304005,0.3275521397590637,1.600504994392395,0.8868380784988403,jumping
1783088301092654800,2.55165478515625,-0.5152196592710911,3.859131881393492,-4.182954962453246,0.4565823078155517,1.010017991065979,0.9830724596977234,jumping
1783088301102699000,2.561698974609375,-0.4705225855410099,3.720163263425231,-0.7977513833910226,0.5042794942855835,0.3649617731571197,0.97120863199234,jumping
1783088301112743000,2.571742919921875,0.4299085433408617,3.973906553825736,1.820145050382614,0.5041815042495728,-0.1921970546245575,0.9101197123527528,jumping
1783088301122787000,2.581787109375,1.4001741098187863,4.673538046987354,4.2860821594506495,0.4917038977146148,-0.597993016242981,0.8610190153121948,jumping
1783088301132831000,2.5918310546875,1.8005042381063103,4.750136425760388,6.618790947768092,0.5063475370407104,-0.8432238101959229,0.915479302406311,jumping
1783088301142876000,2.6018759765625,1.221092531040311,4.095203613764047,9.334850234130023,0.570443332195282,-0.9895560145378112,0.9961979985237122,jumping
1783088301152920000,2.611920166015625,0.0589564852289855,2.756111603026092,12.70773969054222,0.5988454222679138,-1.1483142375946045,1.0043214559555054,jumping
1783088301162964200,2.621964111328125,-1.208705050893128,0.6230567875251174,15.837199745297433,0.4926528930664062,-1.3524636030197144,0.8853779435157776,jumping
1783088301173008000,2.6320078125,-2.0796376980900764,-1.576260306173563,18.260827406424283,0.2026429176330566,-1.61748468875885,0.634596586227417,jumping
1783088301183052000,2.642052001953125,-1.7270621314071115,-3.287121390494704,19.070400745034217,-0.2229317724704742,-1.8829392194747925,0.3180079162120819,jumping
1783088301193097200,2.65209716796875,-0.5864926052376628,-4.169395515917241,17.941346446222067,-0.6129645109176636,-2.0770349502563477,0.0273102801293134,jumping
1783088301203140900,2.662140869140625,0.6774469877518713,-4.274037501391768,15.39262057930827,-0.9043741822242736,-2.1407220363616943,-0.1866986453533172,jumping
1783088301213185000,2.67218505859375,1.7250696424156426,-4.059344364875555,12.790005301296713,-0.9952322244644164,-2.168391704559326,-0.3139721751213074,jumping
1783088301223229000,2.68222900390625,2.2052397617459296,-3.697686058679223,10.07759693865776,-0.8528642654418945,-2.084089756011963,-0.3167515695095062,jumping
1783088301233273000,2.692273193359375,2.493755967102945,-3.314865721988678,7.270285602009296,-0.485261470079422,-1.7727789878845217,-0.1725773513317108,jumping
1783088301243318000,2.702318115234375,2.820571507976949,-2.9034193025335666,5.336818123829365,-0.0536280982196331,-1.2410943508148191,0.0815727859735488,jumping
1783088301253362000,2.71236181640625,3.2343148061975833,-2.554755502466857,4.517165874275565,0.2567342817783355,-0.5737932324409485,0.3588025271892547,jumping
1783088301263406000,2.722406005859375,3.445416932484507,-2.6217145307570693,4.5972880432605745,0.3688478767871856,0.0471827760338783,0.6068283319473267,jumping
1783088301273450000,2.732449951171875,3.42311596108824,-3.0038541917070747,5.344177254420519,0.346445620059967,0.4971137046813965,0.814670205116272,jumping
1783088301283495000,2.742494873046875,2.892741841174662,-3.282843567045033,6.77724489519,0.2904668748378753,0.6526959538459778,1.000377893447876,jumping
1783088301293539000,2.7525390625,2.2961551274240017,-3.9457103869110344,7.353455468127131,0.129125639796257,0.6319190263748169,1.1261258125305176,jumping
1783088301303583000,2.7625830078125,2.2539254667207596,-4.924552496945858,7.261234280547499,-0.100503459572792,0.5428969264030457,1.0568476915359497,jumping
1783088301313627000,2.772626953125,1.972713739158213,-4.9970378874421115,7.570656788071989,-0.2380876839160919,0.5038845539093018,1.004663348197937,jumping
1783088301323671000,2.782671142578125,1.3079644665464758,-4.912137252008915,8.36856190072,-0.2403822690248489,0.3167769312858581,1.0003929138183594,jumping
1783088301333716000,2.792716064453125,0.8913774693325162,-5.158913041484356,8.705742183741927,-0.2479155510663986,0.1773878633975982,0.9405468702316284,jumping
1783088301343760100,2.802760009765625,1.145704697100818,-5.633555337303877,8.839408895909786,-0.3348764181137085,-0.0146742351353168,0.7793315649032593,jumping
1783088301353804000,2.812803955078125,1.519549115653336,-5.557952107048035,8.710477395570278,-0.3681808412075043,-0.1541698127985,0.6402274370193481,jumping
1783088301363848000,2.822847900390625,2.2263272656992075,-4.644169036900997,8.519602941536903,-0.3900455832481384,-0.1749816387891769,0.5380972623825073,jumping
1783088301373892000,2.83289208984375,3.123748983632028,-3.510235733875632,8.369275601947306,-0.4788526892662048,-0.0882400795817375,0.4998364448547363,jumping
1783088301383937000,2.84293701171875,3.8130592815265056,-2.9164374817997216,8.231048449996113,-0.5960339903831482,0.0532662272453308,0.5472847819328308,jumping
1783088301393981000,2.85298095703125,4.077724363435805,-2.9014874576881526,8.242572883573175,-0.5647554397583008,0.1118387281894683,0.6321203112602234,jumping
1783088301404025000,2.863025146484375,3.7834789667770266,-2.947670239931345,7.5732877210974685,-0.3750701248645782,0.0749103873968124,0.7428739070892334,jumping
1783088301414069000,2.873069091796875,2.9561382085472343,-3.1310520001217723,6.534001371493935,-0.0409920252859592,-0.0707618594169616,0.8547719717025757,jumping
1783088301424113200,2.883113037109375,1.896761549334228,-3.1180984105244276,5.335525161409378,0.3396995365619659,-0.2106667309999466,0.8519646525382996,jumping
1783088301434158000,2.893157958984375,1.0199918665468692,-1.9160665537849064,5.307597874563932,0.6933659911155701,-0.3819239735603332,0.8526104688644409,jumping
1783088301444202000,2.903201904296875,1.698794506691396,-0.6135016081944108,6.108537824863195,0.8354653120040894,-0.6327716112136841,0.8750914931297302,jumping
1783088301454246100,2.91324609375,1.212667817044258,0.3298004019036888,6.0084939808338875,0.8223881125450134,-0.882491409778595,0.903194546699524,jumping
1783088301464289800,2.923289794921875,-0.4562570365622639,1.419444773608446,4.5154222454786295,0.8134526014328003,-1.0670990943908691,0.933033525943756,jumping
1783088301474334000,2.933333984375,0.5219590505287051,2.1676395144090055,2.210380631765723,0.969779372215271,-1.3004498481750488,0.9063587188720704,jumping
1783088301484379100,2.943379150390625,-1.5002803515598178,1.2961615082889797,-1.7456582569360732,1.1809219121932983,-1.317507266998291,0.5942767858505249,jumping
1783088301494423000,2.953423095703125,-6.877640036875009,3.0821137816905972,-5.835642090225219,1.2665772438049316,-0.8720690011978149,0.259382963180542,jumping
1783088301504467000,2.963467041015625,-7.293615039670467,3.827255272400379,-8.96496945851147,1.364600419998169,-0.0975911691784858,0.013710624538362,jumping
1783088301514511000,2.973510986328125,-3.415836909995973,2.05826611649841,-15.247310775619743,1.1046963930130005,1.001352310180664,-0.4077298641204834,jumping
1783088301524555000,2.983554931640625,-1.7677686741963028,-0.4837836336523294,-24.09721885371208,0.2047840505838394,2.3599555492401123,-0.9984503388404846,jumping
1783088301534600000,2.993599853515625,-0.5220210098490119,0.381675258308649,-23.6668494148612,-0.2389068305492401,2.5325756072998047,-1.4416402578353882,jumping
1783088301544644000,3.00364404296875,-3.759480543813109,1.96127786064744,-21.072519150114054,0.5202621817588806,1.875846266746521,-1.7043311595916748,jumping
1783088301554688000,3.01368798828125,-9.690018593785169,1.5950535617098212,-18.57795391245484,1.3466531038284302,0.9890386462211608,-1.9591124057769775,jumping
1783088301564732200,3.023732177734375,-9.864064078092577,2.368507246929407,-13.5747797142148,1.3034480810165403,-0.1915955692529678,-2.024362087249756,jumping
1783088301574775800,3.03377587890625,-8.287589836907387,3.6598996411204334,-14.179233800339698,0.618270218372345,-0.9715217351913452,-1.687544822692871,jumping
1783088301584821000,3.043821044921875,-6.806837484899162,2.5415827171608805,-19.480543388414382,-0.1415417939424514,-1.035869598388672,-1.3671056032180786,jumping
1783088301594865200,3.053865234375,-5.42080807415843,0.4594944110482931,-23.943178631079196,-0.5648206472396851,-0.787746250629425,-1.3037534952163696,jumping
1783088301604909000,3.063908935546875,-5.589505767697095,-0.1330278297424316,-25.533358741533753,-0.1916535645723343,-0.4408837556838989,-1.3013147115707395,jumping
1783088301614953000,3.073952880859375,-4.272730802707374,5.219724360799789,-24.823029036486147,0.6424604654312134,-0.1328897029161453,-0.8486315608024597,jumping
1783088301624998100,3.083998046875,-0.5542600224137306,9.417173128029704,-22.339383836770057,1.281551957130432,0.1590762585401535,-0.2215865105390548,jumping
1783088301635042000,3.0940419921875,1.3752122486501932,10.401571703147887,-17.824244499886035,1.3360538482666016,0.2358738332986831,0.4622682332992553,jumping
1783088301645085000,3.1040849609375,-0.4898185299023985,8.812663512325287,-12.466626749134065,1.1622483730316162,0.0122038107365369,1.0611543655395508,jumping
1783088301655128800,3.11412890625,-3.861901930628717,5.74673747984767,-7.670818705523014,1.1182167530059814,-0.3124235272407532,1.2317042350769043,jumping
1783088301665172700,3.1241728515625,-5.104712664741277,3.716494511784613,-3.7619068941771983,1.1148334741592407,-0.5529756546020508,1.1256580352783203,jumping
1783088301675218000,3.134218017578125,-3.3290807098239656,3.5438363901823755,-0.2829045029550791,1.0366469621658323,-0.8095081448554993,1.0407109260559082,jumping
1783088301685262000,3.144261962890625,-0.8284931431353092,3.846086229598522,1.857894643062353,0.985262930393219,-1.0539566278457642,0.972835123538971,jumping
1783088301695305700,3.1543056640625,1.045915996876359,3.883584477865696,3.0061779584795234,0.9336676597595216,-1.2347368001937866,0.8554746508598328,jumping
1783088301705350000,3.164349853515625,2.6375924833685156,3.1705969517856833,4.899812023442983,0.8200299739837646,-1.3887585401535034,0.6579374074935913,jumping
1783088301715394000,3.17439404296875,3.592044540773332,1.8593213148646055,7.549362655630707,0.5582596659660339,-1.5383096933364868,0.3829526603221893,jumping
1783088301725438700,3.184438720703125,3.5747435696214436,0.6654014529101551,10.403322930729388,0.1384748071432113,-1.6554346084594729,0.0399039424955844,jumping
1783088301735483000,3.19448291015625,3.2933418724447487,0.3383694928064942,13.542502415466307,-0.2950910031795501,-1.8227514028549192,-0.2431503981351852,jumping
1783088301745527000,3.204527099609375,3.1355273919701574,0.289207256361097,15.57766968818903,-0.5098260641098022,-2.0233569145202637,-0.345347136259079,jumping
1783088301755571000,3.214571044921875,3.339074572832882,-0.1420342891491949,15.939810224944353,-0.4938031136989593,-2.169952869415283,-0.2761243879795074,jumping
1783088301765615000,3.224614990234375,3.986662867285311,-0.6707495359398424,15.153823513627051,-0.4068030714988708,-2.190028667449951,-0.1516356915235519,jumping
1783088301775660000,3.234659912109375,4.999609199234843,-1.066127010256052,13.765005348950623,-0.3177557587623596,-2.095052480697632,-0.0498211719095706,jumping
1783088301785704000,3.244703857421875,5.756525883412361,-1.1898191486373544,12.172980487412213,-0.2413982301950454,-1.8663254976272583,0.0634110867977142,jumping
1783088301795748000,3.254748046875,5.99886573626697,-1.3504841962374745,10.766637187439205,-0.1190124005079269,-1.5111336708068848,0.1774961054325103,jumping
1783088301805791700,3.264791748046875,5.6658700454533095,-1.5000281303644178,9.709622288921476,0.0786272212862968,-1.0398902893066406,0.2889449298381805,jumping
1783088301815836000,3.2748359375,5.035163327696919,-1.5312354617938395,8.995774931141733,0.2701649665832519,-0.4598889648914337,0.377934455871582,jumping
1783088301825881000,3.284881103515625,4.281368574932217,-1.7108496861442923,8.37697433975637,0.3754677772521972,0.1776329725980758,0.4430660903453827,jumping
1783088301835924700,3.2949248046875,3.697373047207296,-1.7887777060858905,7.476893047225475,0.3785706162452698,0.8957564830780029,0.5013951659202576,jumping
1783088301845969000,3.304968994140625,3.658063073343038,-1.6792029403842983,6.494868215501308,0.183264747262001,1.6754966974258425,0.5033831000328064,jumping
1783088301856012800,3.3150126953125,3.3927880428418513,-1.5569304595425724,5.7427504560381175,-0.1438068598508834,2.510514497756958,0.4862171411514282,jumping
1783088301866057000,3.325056884765625,2.834443673723936,-1.673613595944643,5.617913531535864,-0.4155784249305725,3.2378218173980713,0.5106511116027832,jumping
1783088301876102000,3.335101806640625,2.600792154237628,-2.24763104275167,5.884924299788475,-0.53270024061203,3.781315326690674,0.4774188995361328,jumping
1783088301886145800,3.345145751953125,3.1770030194357037,-2.760033744905889,6.6307035038799045,-0.5121763944625854,3.88794207572937,0.4360899031162262,jumping
1783088301896190000,3.35518994140625,3.489734213116765,-3.3395907056614753,7.517350729820132,-0.4330688118934631,3.499446153640747,0.4115765690803528,jumping
1783088301906234000,3.365234130859375,2.9245892240732907,-4.066254290394485,8.09713039341569,-0.3457473218441009,2.8788654804229736,0.33587247133255,jumping
1783088301916277800,3.37527783203125,2.19822666811347,-4.626474682517349,8.411276422330737,-0.3233991265296936,2.281442403793335,0.1750990599393844,jumping
1783088301926323000,3.385322998046875,1.95391054674983,-4.839037821267545,8.666855111464857,-0.3799935281276703,1.7355761528015137,-0.0301783196628093,jumping
1783088301936367000,3.3953671875,1.78514621771574,-4.356660547281802,8.802057947158813,-0.4435594379901886,1.3076008558273315,-0.212014690041542,jumping
1783088301946411000,3.405410888671875,1.2495203147538003,-3.6074224349081514,8.816171812707186,-0.4622808992862701,1.1241835355758667,-0.3678684830665588,jumping
1783088301956455000,3.415454833984375,1.1149722897067669,-2.3616002440199253,9.438027700009942,-0.4327544271945953,1.058174967765808,-0.4062187969684601,jumping
1783088301966498800,3.425498779296875,2.392522474897653,-1.233380642466247,10.989109725785257,-0.3352713882923126,0.5730611085891724,-0.2174974679946899,jumping
1783088301976544000,3.4355439453125,3.8223961419314145,-1.5075056266382336,10.3937893787086,-0.2875009179115295,-0.3105472326278686,-0.0690829679369926,jumping
1783088301986588000,3.445587890625,3.5201100621581074,-1.7186898782506583,8.2230521905452,-0.1976676434278488,-1.313501477241516,-0.0585776902735233,jumping
1783088301996631800,3.4556318359375,2.273235585737974,-1.0346610278904438,5.855437508541345,0.060097049921751,-2.12424898147583,-0.0237898845225572,jumping
1783088302006676000,3.465676025390625,0.4529176630064845,0.249890122103691,5.007143686392903,0.379499077796936,-2.6747472286224365,0.1071303486824035,jumping
1783088302016720000,3.475719970703125,-0.4413318546310067,0.7361424839571118,4.587266999983787,0.4788746833801269,-2.8118090629577637,0.1662804931402206,jumping
1783088302026764800,3.485764892578125,-0.2587418293401599,1.691058651742339,4.4472862823635335,0.4935127794742584,-2.669034004211426,0.2017505913972854,jumping
1783088302036809000,3.49580908203125,0.1239019817396998,4.038562273609638,3.643613692229986,0.5696842670440674,-2.362668514251709,0.3673648238182068,jumping
1783088302046852900,3.505852783203125,0.4340370214477181,5.174919588911533,2.652702374216914,0.65724778175354,-2.111897230148315,0.5588904023170471,jumping
1783088302056897000,3.51589697265625,-1.237128596822917,5.011931505191326,0.3229875070184469,0.5318903923034668,-1.97589910030365,0.653559148311615,jumping
1783088302066941000,3.52594091796875,-4.835304479958117,3.724964233966172,-4.5179403657794,0.2756710946559906,-1.76025390625,0.576632559299469,jumping
1783088302076985900,3.53598583984375,-9.188850110089778,1.9055927983045575,-11.653951937377451,0.0617854259908199,-1.2935985326766968,0.2124303728342056,jumping
1783088302087030000,3.546030029296875,-10.505083515548703,0.8611606102451682,-17.920013735336063,-0.1303263455629348,-0.5687249898910522,-0.2467763721942901,jumping
1783088302097074000,3.556073974609375,-9.506627773505448,-3.3230037279978393,-23.051504516887665,-0.4376916289329529,0.4236077070236206,-1.1661416292190552,jumping
1783088302107117800,3.566117919921875,-10.3497748804152,-4.851583999107778,-27.922187476480005,-0.7367987632751465,1.741172432899475,-2.360050678253174,jumping
1783088302117162000,3.576161865234375,-8.817273636469244,-1.1443071052625775,-25.097027179408073,-0.7584934234619141,2.3283629417419434,-2.8991825580596924,jumping
1783088302127207200,3.586207275390625,-7.998481803137064,0.7084025363773108,-20.10445270111561,-0.6228304505348206,2.393284559249878,-3.107778787612915,jumping
1783088302137250800,3.596250732421875,-8.996079467046261,2.2832827863693237,-18.39640024447441,-0.5844641923904419,2.4503746032714844,-2.9759175777435303,jumping
1783088302147295000,3.606294921875,-10.283365010440347,2.379111643052101,-20.24304985542297,-0.6487271189689636,2.645540475845337,-2.604508638381958,jumping
1783088302157339000,3.6163388671875,-9.218945388624071,1.2008525838270785,-22.357265530419347,-0.7147242426872253,2.585482358932495,-2.15857458114624,jumping
1783088302167383800,3.6263837890625,-7.82052995904088,0.3246697610169649,-24.404064788746833,-0.6318603157997131,2.2487335205078125,-1.6985857486724854,jumping
1783088302177428000,3.636427978515625,-6.218651227486133,0.6735024879097938,-24.872834977662563,-0.4142520427703857,1.7111819982528689,-1.1403850317001345,jumping
1783088302187472000,3.646471923828125,-3.6513007396012545,1.1687453809484838,-22.519545173609256,-0.0896732360124588,1.0361415147781372,-0.5326049327850342,jumping
1783088302197516000,3.65651611328125,-1.7039444368004797,1.8405138846725224,-18.69694035736322,0.1496978104114532,0.5161079168319702,-0.1010988429188728,jumping
1783088302207560000,3.666559814453125,-1.2203472656309604,2.9315213614240285,-13.936557847398518,0.228172093629837,0.190052792429924,0.1739219725131988,jumping
1783088302217604900,3.67660498046875,-1.847211921006441,3.8075592228055,-8.573853587162494,0.3483411073684692,0.0276210084557533,0.3957225680351257,jumping
1783088302227649000,3.68664892578125,-1.0945774441927671,4.550550257483124,-3.1422751126646995,0.5023841857910156,-0.2588514685630798,0.5156218409538269,jumping
1783088302237693000,3.69669287109375,0.6409320514336228,4.9897296102553605,0.4735124150067568,0.5195804834365845,-0.6329054832458496,0.6221908926963806,jumping
1783088302247736800,3.70673681640625,2.3252552574411034,4.972137839463353,2.991387801104784,0.4321685135364532,-1.0215661525726318,0.701758086681366,jumping
1783088302257781000,3.716781005859375,3.1765374477505683,4.261458298064768,4.778025134161115,0.38470458984375,-1.2007014751434326,0.7237834930419922,jumping
1783088302267826000,3.726825927734375,3.177416276411712,4.038292224496603,7.150390225562453,0.3062373697757721,-1.2511508464813232,0.7123968005180359,jumping
1783088302277869800,3.736869873046875,2.565759127040207,3.6674563401103017,10.325706607085468,0.1215141117572784,-1.2445485591888428,0.6489824056625366,jumping
1783088302287914000,3.7469140625,1.9008561251714824,2.4257496217168866,12.641902652019262,-0.1515272408723831,-1.1021238565444946,0.5802656412124634,jumping
1783088302297958000,3.7569580078125,2.4007073887884616,0.7314416127897798,14.780406380575894,-0.4340151250362396,-1.0187618732452393,0.4601626396179199,jumping
1783088302308002000,3.767001953125,3.5408979986429214,-0.3970611896194517,16.38879668598175,-0.6797369122505188,-1.077498197555542,0.3420242071151733,jumping
1783088302318047000,3.777046875,4.661688911500573,-1.1324877803921698,16.67761362785101,-0.8503085970878601,-1.2156240940093994,0.2459029853343963,jumping
1783088302328091000,3.7870908203125,5.295712206459045,-1.8657646457850932,15.959478217488526,-0.9020521640777588,-1.3795219659805298,0.1519750207662582,jumping
1783088302338135000,3.797135009765625,5.478543054768442,-2.074284062102437,14.4938585526824,-0.8540732264518738,-1.513061761856079,0.0638462230563163,jumping
1783088302348179000,3.807178955078125,5.032238964682817,-2.09732036203593,12.571401128816603,-0.6931458115577698,-1.4656888246536257,-0.006835151463747,jumping
1783088302358222800,3.817222900390625,4.32206737280637,-2.316158635532856,10.921646547365189,-0.4310171902179718,-1.2118525505065918,-0.0698609873652458,jumping
1783088302368268000,3.82726806640625,3.9096108995258807,-2.3554887754023075,9.628699324947595,-0.1301412433385849,-0.791358232498169,-0.1363293975591659,jumping
1783088302378312000,3.83731201171875,3.4200650490850206,-2.0784327062144876,8.386010463649034,0.1059466451406478,-0.2957570254802704,-0.1716881990432739,jumping
1783088302388356000,3.847356201171875,2.867325952628254,-2.0499597681850195,7.143226909804344,0.224236860871315,0.1987593919038772,-0.1619210243225097,jumping
1783088302398399700,3.857399658203125,2.4270564665317536,-2.498703068116307,5.5600739215075965,0.1898799538612365,0.7185381650924683,-0.1152701526880264,jumping
1783088302408444000,3.86744384765625,2.2551509168624877,-3.1746830520555376,4.440870570102334,0.0569067001342773,1.2201825380325315,-0.1106451824307441,jumping
1783088302418489000,3.877489013671875,2.436341012227535,-3.940053676323593,3.9607752695739262,-0.0881314426660537,1.658550500869751,-0.1561215817928314,jumping
1783088302428532700,3.88753271484375,2.6998665687128898,-4.223289895451068,4.281751436769962,-0.192501962184906,1.953422784805298,-0.2304452359676361,jumping
1783088302438577000,3.897576904296875,2.7337498413532972,-3.951673386968672,5.324753592026234,-0.2598873972892761,2.019679307937622,-0.2590888440608978,jumping
1783088302448621000,3.90762109375,2.2636916584536433,-3.9585210609063504,6.750856654480099,-0.2899029850959778,1.919108271598816,-0.2330773323774337,jumping
1783088302458665000,3.9176650390625,1.5135995595991611,-4.363408267976343,8.363792202100157,-0.3072683811187744,1.6839919090270996,-0.2315303087234497,jumping
1783088302468710000,3.9277099609375,1.2645464728415012,-4.473898979479074,9.846826527565716,-0.3169978260993957,1.3481930494308472,-0.2142324298620224,jumping
1783088302478754000,3.937754150390625,1.606831385526061,-4.147275161784887,10.610358245968818,-0.3003669381141662,0.9540702700614928,-0.1531776040792465,jumping
1783088302488798000,3.9477978515625,2.0492562960907814,-3.752114106698334,10.494157632386685,-0.2591115534305572,0.5694158673286438,-0.056962851434946,jumping
1783088302498842000,3.957842041015625,2.44686883598268,-3.573400046057999,9.891199922299384,-0.1616688817739486,0.2325121462345123,0.041538156569004,jumping
1783088302508885800,3.9678857421875,2.919715188296139,-3.278937791778147,9.098531541261076,-0.0272684898227453,-0.0074574588797986,0.129116490483284,jumping
1783088302518931000,3.977930908203125,3.599930325587094,-2.74229525911957,8.628699276071787,0.0918967798352241,-0.1833954602479934,0.2145528346300125,jumping
1783088302528975000,3.98797509765625,4.22449079567343,-1.9801117404550312,8.508346218985318,0.1857087910175323,-0.3455059826374054,0.3127312660217285,jumping
1783088302539018800,3.998018798828125,3.9873254228472703,-1.2490253708437085,8.240541670006513,0.297280341386795,-0.4295835793018341,0.3756284713745117,jumping
1783088302549063000,4.00806298828125,3.252851456624269,-0.9004147622689604,8.418249768474698,0.3649131655693054,-0.4119494557380676,0.3553309142589569,jumping
1783088302559106800,4.01810693359375,2.382289396305382,-0.4116396039396524,9.075437665921449,0.2853064835071563,-0.3480335772037506,0.3382150530815124,jumping
1783088302569152000,4.028152099609375,1.0747361409083007,-0.4055173216670751,9.22793708885312,0.1268464624881744,-0.2770135104656219,0.2740663886070251,jumping
1783088302579196000,4.03819580078125,-0.7181047229632734,-0.119979547598958,7.87800833454132,-0.0007474485319107,-0.178942859172821,0.1798189878463745,jumping
1783088302589239800,4.04823974609375,-0.5621583744481206,1.9942820123657583,6.5246589581310745,-0.0026275569107383,-0.1575760245323181,0.3732795715332031,jumping
1783088302599284000,4.058283935546875,2.9792770920723677,3.7244589147925375,5.80313448985219,0.1603855937719345,-0.3505577147006988,0.7084887027740479,jumping
1783088302609328000,4.068328125,4.461297564320266,4.1302728813186285,4.512722338870168,0.2867860198020935,-0.8023890256881714,1.011841893196106,jumping
1783088302619372800,4.078372802734375,1.8514470743581652,3.795512518920004,1.374074769052863,0.2742228209972381,-1.2584418058395386,1.219017505645752,jumping
1783088302629417000,4.0884169921875,-1.9406299171552064,3.095753015464544,-3.57232540256381,0.2316273003816604,-1.3271031379699707,1.358314871788025,jumping
1783088302639461000,4.098461181640625,-4.283546211232244,3.082963676518202,-9.6463308432281,0.0878562927246093,-0.993488311767578,1.3970603942871094,jumping
1783088302649504500,4.10850439453125,-5.521155869570374,3.9828602601319543,-17.578564104431866,-0.1810719072818756,-0.0582618787884712,1.339099645614624,jumping
1783088302659548400,4.11854833984375,-6.010508827787637,2.9762814173877237,-25.785619684422013,-0.3809240460395813,1.5430574417114258,1.1353049278259275,jumping
1783088302669593600,4.128593505859375,-7.197834113782644,-5.8981543682396405,-29.20884641240835,-0.4487498700618744,2.81471586227417,0.1039310842752456,jumping
1783088302679637500,4.138637451171875,-4.545214449413121,-6.170479609513283,-22.365570417428017,-0.0106478761881589,2.156008243560791,-0.925855278968811,jumping
1783088302689681400,4.148681396484375,-4.972185770258307,0.4191182692572474,-18.75794573794603,0.6235315203666687,1.0161426067352295,-1.3810828924179075,jumping
1783088302699725600,4.1587255859375,-6.878000686880946,2.594964178736508,-17.805909217250345,0.8795292377471924,0.6893594264984131,-1.563853740692139,jumping
1783088302709769500,4.16876953125,-7.477512640428543,2.506191670306027,-16.50774689053297,0.7540119886398315,0.8001546263694763,-1.6883087158203125,jumping
1783088302719814700,4.178814697265625,-7.470889422896504,1.4397946109369395,-18.375747917068004,0.2110643237829208,1.2502647638320925,-1.825907826423645,jumping
1783088302729858300,4.1888583984375,-6.702865653771162,0.5655906869843602,-21.42958720591068,-0.5452340245246887,1.7944637537002563,-1.8962026834487915,jumping
1783088302739902500,4.19890234375,-5.5863727303683754,1.037016066583991,-23.26102521920204,-1.0178436040878296,1.995225429534912,-1.7573907375335691,jumping
1783088302749946600,4.208946533203125,-3.998298944543302,2.776273516567051,-23.684862041413783,-0.8429371118545532,1.6272966861724854,-1.3533817529678345,jumping
1783088302759990500,4.218990478515625,-1.7468275929763912,3.1292610250517723,-23.497515761506556,-0.1337056756019592,1.0216856002807615,-0.8961907029151917,jumping
1783088302770035500,4.229035400390625,0.361870779903233,2.6969913055375216,-20.59906109564304,0.5533220171928406,0.429451048374176,-0.4344041049480438,jumping
1783088302780079600,4.23907958984375,0.2991591799244284,1.956609576575458,-16.287087539088724,0.8297461271286011,0.0605779588222503,-0.1001315787434578,jumping
1783088302790123500,4.24912353515625,-0.3387862569138407,0.7429822668492794,-12.02927110465765,0.8996820449829102,0.0671600624918937,-0.0233282037079334,jumping
1783088302800167700,4.259167724609375,-0.9623026247747242,-0.1022463225096464,-7.262260700985789,0.8404238224029541,0.1413839608430862,-0.1473383009433746,jumping
1783088302810211300,4.26921142578125,-1.2301833077296611,0.1897851974919438,-2.3372148675650357,0.7227965593338013,0.0521033890545368,-0.351121723651886,jumping
1783088302820256500,4.279256591796875,-0.8224236139632761,1.5667624099880455,1.0803630408793687,0.5579466223716736,-0.1516263037919998,-0.4789800941944122,jumping
1783088302830300700,4.28930078125,-0.4377887751966715,3.2248575342833994,3.1677339635699986,0.3680800497531891,-0.3020754158496856,-0.5013973116874695,jumping
1783088302840344300,4.29934423828125,0.3385283366300165,3.6566716189846393,5.423592736440897,0.2079119533300399,-0.4826894104480743,-0.470643401145935,jumping
1783088302850388500,4.309388427734375,0.6782762781828642,3.358873790541291,7.51974200887084,0.0849290117621421,-0.6191408634185791,-0.4105776250362396,jumping
1783088302860432600,4.3194326171875,0.5084693082280457,2.7983886100023985,9.339593629264831,-0.0082949427887797,-0.6457160115242004,-0.3585980534553528,jumping
1783088302870477300,4.329477294921875,0.7500108503118157,2.1204056156776843,11.27845507544279,-0.0947760343551635,-0.5599326491355896,-0.3363376259803772,jumping
1783088302880521500,4.339521484375,1.439388952745497,1.3099338669233025,13.230309274184703,-0.247631624341011,-0.4481488466262817,-0.3050915598869324,jumping
1783088302890565600,4.349565673828125,2.2180575961343942,0.667533204241842,14.704012876725196,-0.4274526536464691,-0.3680028319358825,-0.2711411416530609,jumping
1783088302900609500,4.359609619140625,2.909597991168499,0.0920215733543038,15.385615668982268,-0.5693226456642151,-0.3480717241764068,-0.2370268404483795,jumping
1783088302910653700,4.36965380859375,3.0665652071639893,-0.6098593061693013,15.033094024443626,-0.6748378872871399,-0.3723433911800384,-0.2271153628826141,jumping
1783088302920698400,4.379698486328125,2.779653514394164,-0.9029664925783872,13.626984533226487,-0.6800161600112915,-0.3329262137413025,-0.1943345069885254,jumping
1783088302930742500,4.389742431640625,2.49370014526248,-1.2199515443116429,12.441535562497377,-0.5702448487281799,-0.2760673761367798,-0.125493586063385,jumping
1783088302940786700,4.39978662109375,2.0105494026862085,-1.7695932592749597,11.424490855318307,-0.4110767543315887,-0.2240869849920272,-0.0659365206956863,jumping
1783088302950830300,4.409830322265625,1.4473326052263378,-1.9334657246142624,10.023823262894153,-0.2458131164312362,-0.1330956518650055,0.0063535999506711,jumping
1783088302960874500,4.41987451171875,1.424487736211717,-1.9616727051839231,8.244643260106443,-0.0573374740779399,0.0240912977606058,0.0579118654131889,jumping
1783088302970919700,4.429919677734375,2.0284899869158863,-1.976486535695195,6.73446198451817,0.0522299669682979,0.197270780801773,0.0724405199289321,jumping
1783088302980963600,4.439963623046875,2.668250656482577,-1.9300243519887328,5.802501452645659,0.0594748295843601,0.3802118599414825,0.104481540620327,jumping
1783088302991007500,4.450007568359375,2.830094246342778,-2.545632869334519,5.242798362395167,0.0241887494921684,0.5837492942810059,0.114225834608078,jumping
1783088303001051400,4.460051513671875,2.574191439820826,-3.327612683098018,5.337932222551107,-0.0133282644674181,0.7619903683662415,0.0774691477417945,jumping
1783088303011095600,4.470095458984375,2.2843621060386297,-3.873820331959426,6.151897074118256,-0.0243128351867198,0.83176589012146,0.0125134168192744,jumping
1783088303021140500,4.480140380859375,2.0711792279548944,-4.110107460646331,7.43076199516952,-0.0396422557532787,0.748981237411499,-0.0561471357941627,jumping
1783088303031184400,4.490184326171875,1.7251416847385466,-4.138909776760637,8.525175188711286,-0.0496700704097747,0.5884786248207092,-0.1270278394222259,jumping
1783088303041228500,4.500228515625,1.2493581099294124,-3.9647468035534024,9.573068038618564,-0.1003793179988861,0.3904326260089874,-0.196323812007904,jumping
1783088303051272700,4.510272705078125,0.9323790495455264,-3.529543953196704,10.507305867773294,-0.2040374130010604,0.1792977154254913,-0.2423809915781021,jumping
1783088303061316600,4.520316650390625,0.9795032042920588,-3.0112244282141325,11.032719734930993,-0.3201970160007477,-0.0017927130684256,-0.2327534109354019,jumping
1783088303071361500,4.530361572265625,1.4041373143613338,-2.482596275185049,11.14521681782007,-0.4333617091178894,-0.1732051819562912,-0.155849426984787,jumping
1783088303081405400,4.540405517578125,1.936364076404273,-2.059630098327994,10.7952869433403,-0.5066633820533752,-0.3088679313659668,-0.029078708961606,jumping
1783088303091449600,4.55044970703125,2.4492789658643304,-1.5927821096464991,10.081071336770057,-0.4879885017871856,-0.3904188275337219,0.1378376334905624,jumping
1783088303101493500,4.560493408203125,3.0609178489267825,-1.0965531281799077,9.35425577634573,-0.3482218384742737,-0.4014421701431274,0.3286986649036407,jumping
1783088303111538400,4.570538330078125,3.6874388054311273,-0.6508253766775131,9.021393941044806,-0.1663040518760681,-0.3970999419689178,0.5163809061050415,jumping
1783088303121582600,4.58058251953125,4.003856578670442,-0.3412172834530472,9.046874419260025,-0.0380462147295475,-0.3976967632770538,0.6411665081977844,jumping
1783088303131626500,4.59062646484375,3.5475253078281876,0.0783951990619301,9.419109649050236,-0.0082642203196883,-0.4100021719932556,0.7302808165550232,jumping
1783088303141670400,4.60067041015625,2.203937154714763,0.7274824999004602,9.525837500888109,-0.0398687534034252,-0.4703142642974853,0.8100627064704895,jumping
1783088303151714600,4.610714599609375,1.1941368657059968,1.4311217673987149,8.636407950752973,-0.0643713846802711,-0.4921394884586334,0.9058337807655334,jumping
1783088303161758500,4.620758544921875,1.798724515082687,2.000276868866384,7.69728994834125,-0.0414442345499992,-0.6454158425331116,1.0413470268249512,jumping
1783088303171803400,4.630803466796875,2.871469043782353,2.793215299017727,6.039745443665981,0.0406207628548145,-0.9445934295654296,1.1105530261993408,jumping
1783088303181847600,4.64084765625,2.4633093909129498,3.7055847029745577,2.783114468502998,0.1629205793142318,-1.09997820854187,1.1724669933319092,jumping
1783088303191891500,4.650891357421875,-0.6502969688892364,4.054117277877032,-1.2465256629824637,0.3506217896938324,-1.0027042627334597,1.3338438272476196,jumping
1783088303201935600,4.660935546875,-5.4591345899432895,3.4109108517706392,-5.422278146710991,0.6388272047042847,-0.4768378138542175,1.4182485342025757,jumping
1783088303211979500,4.6709794921875,-8.48960001746118,2.749327934235334,-9.23968364074826,0.7669780254364014,0.3140060305595398,1.1442567110061646,jumping
1783088303222024400,4.6810244140625,-8.546393917828798,3.0042230250194666,-15.291001448786258,0.3803192675113678,1.5321886539459229,0.8093389868736267,jumping
1783088303232068600,4.691068603515625,-7.052671609610319,1.0172703326284884,-24.696872846078872,-0.4771701991558075,3.544206380844116,0.3850626945495605,jumping
1783088303242112500,4.701112548828125,-5.056276258352399,-1.0138161005213857,-31.024602872443197,-1.5388572216033936,5.680850982666016,-0.0974104776978492,jumping
1783088303252156400,4.711156494140625,0.9717915339361876,1.8002517246499656,-23.16599365037679,-1.40070641040802,5.44763708114624,-0.2372582256793975,jumping
1783088303262201600,4.72120166015625,2.0559739139080047,5.0153433594614265,-16.817576225292683,-0.1360644698143005,3.5163772106170654,-0.0803141444921493,jumping
1783088303272245500,4.73124560546875,-1.2609572161778806,4.568187328721582,-15.577430034214258,1.0148361921310425,1.4007118940353394,-0.1164930760860443,jumping
1783088303282289400,4.741289306640625,-2.9302228460460897,1.9391931623503564,-16.450690539836884,1.1871399879455566,-0.0486693009734153,-0.435858279466629,jumping
1783088303292333600,4.75133349609375,-2.839969451408088,-0.0515846412867307,-19.78164698040485,0.6462355852127075,-0.8090011477470398,-0.8955085277557373,jumping
1783088303302377500,4.76137744140625,-1.2512880550786851,-0.9007114071279764,-23.645879107546804,0.0403430312871933,-1.3100231885910034,-1.2602702379226685,jumping
1783088303312421600,4.771421630859375,-0.3534181549869477,0.3751686528936028,-26.020807911956307,-0.1905388236045837,-1.821902871131897,-1.3856828212738037,jumping
1783088303322466600,4.781466552734375,-0.7960183490533381,1.7861694232836365,-26.86231601948738,0.0848831608891487,-1.9685252904891968,-1.3840359449386597,jumping
1783088303332510500,4.791510498046875,-0.9752201932106168,3.4532530329376456,-24.658500153064725,0.3948967158794403,-1.6174308061599731,-1.1381537914276123,jumping
1783088303342554600,4.8015546875,-0.764200995966792,5.08081740989089,-19.621525392031668,0.4237379729747772,-1.122207522392273,-0.6989274024963379,jumping
1783088303352598500,4.8115986328125,-0.5002528301551937,5.526911072096229,-14.062738587725162,0.1704072654247284,-0.6607545018196106,-0.284216046333313,jumping
1783088303362642400,4.821642333984375,-0.3908234642736613,4.9051194822013375,-9.121440707683565,-0.2366441190242767,-0.33507040143013,0.0289128348231315,jumping
1783088303372687600,4.8316875,-0.4681085101366042,3.279107595387101,-5.067514860725402,-0.5833920836448669,-0.1652332544326782,0.1607608050107956,jumping
1783088303382731500,4.8417314453125,-0.4842416065528988,2.5482804612338543,-2.367181551283598,-0.7256762385368347,-0.0470421686768531,0.1875000149011612,jumping
1783088303392775400,4.851775390625,-0.4943121880598366,2.6017101458653804,-0.1803536445409059,-0.6633750796318054,0.0789011791348457,0.2068107724189758,jumping
1783088303402819600,4.861819580078125,0.1770122251585126,1.9038605676844715,2.5585768143206833,-0.3975250124931335,0.1344307363033294,0.1735699921846389,jumping
1783088303412863500,4.871863525390625,0.5632802180849016,0.5592223209962248,5.570246355953812,-0.1245853304862976,0.0611655265092849,0.0555795282125473,jumping
1783088303422908700,4.88190869140625,0.2852683094769716,-0.6805562058135867,8.508993869239092,-0.0083378106355667,-0.1316342949867248,-0.1643610894680023,jumping
1783088303432952300,4.891952392578125,-0.3078019205853343,-1.17918757224679,11.28642093975544,-0.0176844894886016,-0.4298672378063202,-0.3790319263935089,jumping
1783088303442996500,4.90199658203125,-0.4431394885748624,-1.392071613514423,13.729549420166014,0.0085897259414196,-0.8436018228530884,-0.5494659543037415,jumping
1783088303453040600,4.91204052734375,0.1971951814875006,-1.4012895237147809,15.245457841229438,0.0622539147734642,-1.3058315515518188,-0.6712219715118408,jumping
1783088303463084500,4.92208447265625,1.1297719455622135,-0.786564511205256,15.642072309994695,0.0898376032710075,-1.7165889739990234,-0.7063488364219666,jumping
1783088303473129500,4.93212939453125,1.6963010824404656,-0.0978220763266086,15.47194136878252,0.0656504780054092,-2.01776385307312,-0.6033567786216736,jumping
1783088303483173600,4.942173583984375,2.132099706733227,0.2305547225147485,14.445511578142645,0.0368132404983043,-2.131503105163574,-0.3918317258358001,jumping
1783088303493217500,4.952217529296875,3.224069014254212,0.1026923127114772,12.962058150482177,0.0269058421254158,-2.129316806793213,-0.1180253624916076,jumping
1783088303503261400,4.962261474609375,3.399292602430284,-0.4193491554036736,10.796060850322243,0.1699263751506805,-1.8513256311416624,0.1391529142856598,jumping
1783088303513305300,4.972305419921875,2.9258593901395797,-2.0405530574142934,8.793898606100678,0.5012636184692383,-1.3025295734405518,0.267672598361969,jumping
1783088303523350500,4.9823505859375,2.458776715919375,-3.704938806286454,7.749072742548584,0.8897586464881897,-0.6533858776092529,0.2063847482204437,jumping
1783088303533394700,4.992394775390625,2.0790797719463705,-4.177141599999368,7.197168343350291,1.1299386024475098,0.0351661518216133,0.0688503235578537,jumping
1783088303543438300,5.002438232421875,1.6375830821424722,-3.5013705826357007,6.731802994441986,1.122237205505371,0.6936167478561401,-0.0022688591852784,jumping
1783088303553482500,5.012482421875,1.5899992009297013,-2.5543296782702205,6.82053224825263,0.9463117122650146,1.2182694673538208,0.0272922664880752,jumping
1783088303563526700,5.022526611328125,1.9038395248964428,-1.9098714985370635,7.30146166151762,0.6543715000152588,1.634132742881775,0.0722283124923706,jumping
1783088303573571300,5.0325712890625,2.176265450065583,-1.7780235262289643,8.175783074370026,0.2569001317024231,1.8537203073501587,0.1309587657451629,jumping
1783088303583615500,5.042615478515625,2.3544366360008717,-2.1586144964322447,9.144804632136225,-0.1557721495628357,1.7737970352172852,0.1894686818122863,jumping
1783088303593659400,5.052659423828125,2.248976904402673,-2.954792639157176,9.759431737229228,-0.4650944471359253,1.438636064529419,0.2361723333597183,jumping
1783088303603703600,5.06270361328125,1.428445972318202,-4.156094135795533,9.802682265412807,-0.6453731656074524,1.00342857837677,0.1932664066553115,jumping
1783088303613747700,5.072747802734375,0.8746484528496861,-4.84283253737539,9.797503401470184,-0.7056870460510254,0.5773265957832336,0.0603665374219417,jumping
1783088303623792400,5.08279248046875,0.9240877526707948,-4.812967268204689,9.720569799393417,-0.6574894189834595,0.2246309071779251,-0.0628518015146255,jumping
1783088303633836500,5.09283642578125,1.1637800136260688,-4.352931589886546,9.31456849360168,-0.5341098308563232,0.018830869346857,-0.1326219141483307,jumping
1783088303643880700,5.102880615234375,1.5431285825528205,-3.753719496068358,8.987540186759828,-0.413270503282547,-0.0406577587127685,-0.1450151950120926,jumping
1783088303653924900,5.1129248046875,2.2850307990804315,-3.193918498401344,9.089903413647413,-0.340298593044281,-0.0497573427855968,-0.0888468846678733,jumping
1783088303663968800,5.12296875,2.879992541977763,-2.7366844335004687,9.047092445924877,-0.341637909412384,-0.1077889502048492,0.0358140878379344,jumping
1783088303674014000,5.133013916015625,3.057169894570112,-2.574801388412714,8.554286132383346,-0.3543079197406769,-0.1630014479160308,0.1675135940313339,jumping
1783088303684057900,5.143057861328125,2.9735078610211607,-2.473533263285458,8.121091114717721,-0.3121484816074371,-0.1612602770328521,0.245008111000061,jumping
1783088303694101800,5.153101806640625,2.9411767862588167,-2.1777909060671923,8.101169439673424,-0.2340430319309234,-0.1291271597146988,0.3223147988319397,jumping
1783088303704146000,5.16314599609375,2.481385438090563,-1.3399164788633584,8.385003332433104,-0.1821148544549942,-0.1631258726119995,0.4359912872314453,jumping
1783088303714190000,5.173190185546875,1.6184304917745291,-0.6643026978880167,8.868585306033491,-0.1026287227869033,-0.2638768851757049,0.5531476140022278,jumping
1783088303724234800,5.18323486328125,0.1370357502095401,-0.5489218762561678,8.96987827334106,0.0311455838382244,-0.3746846318244934,0.672615647315979,jumping
1783088303734279000,5.19327880859375,-0.8102377938680351,0.0966252677574753,8.441076517310739,0.1606155186891555,-0.5016449093818665,0.8247477412223816,jumping
1783088303744322800,5.20332275390625,0.2845224595457315,1.2665186496973038,7.672085948979854,0.2362990975379943,-0.724469780921936,1.0182911157608032,jumping
1783088303754367000,5.213366943359375,2.6961668374121186,3.885540288108587,5.7174692997872825,0.2698128223419189,-0.9651983380317688,1.3652671575546265,jumping
1783088303764411000,5.223410888671875,4.7160272354096175,5.241681341063976,3.00018017936945,0.2184095233678817,-1.1107879877090454,1.6849673986434937,jumping
1783088303774455800,5.233455810546875,2.477462419427931,4.348408851765096,-1.4760989732444283,0.0171538759022951,-0.961925745010376,1.793332815170288,jumping
1783088303784500000,5.2435,-3.4039991726860404,3.2354061085656283,-7.9227891410321,-0.1504620313644409,-0.2091851085424423,1.6387906074523926,jumping
1783088303794543900,5.2535439453125,-6.337741717290878,3.1490859617233276,-14.463584994971752,-0.1975740939378738,1.083184003829956,1.33399498462677,jumping
1783088303804587800,5.263587890625,-2.940237751843035,4.052236870957911,-19.634321745240687,-0.1867595314979553,2.5946855545043945,1.0901917219161987,jumping
1783088303814632000,5.2736318359375,-0.2808827878691255,0.9893506445676088,-21.254413009834288,-0.2620033621788025,3.7980356216430664,0.7584925293922424,jumping
1783088303824676900,5.2836767578125,1.3189707214683293,-4.496564692534506,-14.635469501852988,-0.3236339688301086,3.352149724960327,-0.0690842494368553,jumping
1783088303834720800,5.293720703125,-0.1731802457801997,-2.9505691762432456,-12.20444997690916,-0.1360498517751693,2.1173386573791504,-0.6568906307220459,jumping
1783088303844765000,5.303764892578125,-3.278739931118488,-0.1972220694944262,-15.693913556391,0.1283676922321319,1.3024877309799194,-0.90091472864151,jumping
1783088303854808800,5.313808837890625,-5.509384767755866,0.9599898177877068,-18.112462891340257,0.2820125222206116,0.9084150195121764,-1.1253330707550049,jumping
1783088303864853000,5.32385302734375,-5.662917625388503,1.401082018443942,-20.624083308696747,0.193458691239357,0.7477683424949646,-1.3876131772994995,jumping
1783088303874898000,5.33389794921875,-4.474142432846128,1.489085880589485,-23.64473110655546,-0.0698198974132537,0.6419668197631836,-1.503193736076355,jumping
1783088303884941800,5.34394189453125,-2.721800752623379,2.595513629312813,-24.99076811412573,-0.2964794039726257,0.399924099445343,-1.271502137184143,jumping
1783088303894986000,5.353986083984375,-1.7866671436727046,3.061224138396978,-24.20614801498651,-0.2781585156917572,-0.1051122099161148,-0.8631042242050171,jumping
1783088303905030000,5.36402978515625,-2.4998212584912776,2.6488015673860907,-22.074653872931,0.1621597558259964,-0.6679787635803223,-0.5891416668891907,jumping
1783088303915073800,5.37407373046875,-3.362296166205406,2.5522405970364805,-19.77108350081444,0.6112691164016724,-0.959721863269806,-0.4293476641178131,jumping
1783088303925119000,5.384118896484375,-2.4263170463412997,2.6717200861588117,-17.893959256625173,0.573855459690094,-0.931248128414154,-0.3328072726726532,jumping
1783088303935163000,5.394162841796875,-1.1271515339307487,3.07414557929039,-16.735746667867897,0.1726653575897216,-0.5050094127655029,-0.2189718037843704,jumping
1783088303945206800,5.404206787109375,0.4158306989539414,3.709118137797713,-14.287788867604732,-0.1426340043544769,-0.0133919846266508,-0.0919840261340141,jumping
1783088303955251000,5.4142509765625,1.0449837575275451,4.264822221539914,-11.370142010015249,-0.2571332156658172,0.2766993641853332,0.0791959837079048,jumping
1783088303965294800,5.424294921875,0.7980638103410601,4.553161901286244,-8.191988943761586,-0.2029035240411758,0.1927855461835861,0.2269612252712249,jumping
1783088303975339800,5.43433984375,0.4837020197834819,4.337558664187789,-5.189742479512095,-0.0439104586839675,-0.1515484005212783,0.2628737688064575,jumping
1783088303985384000,5.444384033203125,0.3509416088055819,4.1594782252758735,-2.3585674521952864,0.10090371966362,-0.5501692295074463,0.2397079914808273,jumping
1783088303995427800,5.454427734375,0.2762398574341088,3.3106028038471935,0.60277007856071,0.1766393184661865,-0.7959954142570496,0.1622599810361862,jumping
1783088304005472000,5.464471923828125,0.8057961581587791,1.9961428378015755,4.21064201080203,0.0995956659317016,-0.9186574220657348,0.0323371291160583,jumping
1783088304015516000,5.474515869140625,1.4489590373843908,0.634010727737844,7.833906157964467,-0.1621841937303543,-1.0043504238128662,-0.0744206681847572,jumping
1783088304025560800,5.484560791015625,2.0625209974639116,-0.6568216944828629,10.464387932544946,-0.4408373832702636,-1.169352889060974,-0.1061437129974365,jumping
1783088304035605000,5.49460498046875,1.092638000562787,-1.4448214991882442,11.168270361149313,-0.6629204154014587,-1.7877286672592163,-0.1443474441766739,jumping
1783088304045649000,5.50464892578125,0.0844973153293132,-1.0824807636857032,11.070203954672811,-0.4997994303703308,-2.477508783340454,-0.207420140504837,jumping
1783088304055692800,5.51469287109375,1.065405125722289,-0.8286740526601671,12.17259821009636,-0.0761801674962043,-3.358959436416626,-0.1617520600557327,jumping
1783088304065736700,5.52473681640625,1.9895150902248917,-1.2616682870566844,12.489465188407896,0.3164475560188293,-4.173215389251709,-0.0198740251362323,jumping
1783088304075780900,5.53478076171875,2.616934018482268,-1.5835557238787412,12.797509393316506,0.6309793591499329,-4.561484336853027,0.1323823630809784,jumping
1783088304085826000,5.544825927734375,3.1662735356286165,-1.3348790692180394,13.631829050648212,0.7584971189498901,-4.627889156341553,0.2838648557662964,jumping
1783088304095869700,5.55486962890625,4.169567949874699,-1.1560405054152012,13.3522873021245,0.6618528962135315,-4.375451564788818,0.4214773774147033,jumping
1783088304105913900,5.564913818359375,4.48499466625005,-1.3027002624079584,12.443182745182511,0.4417966902256012,-3.8351619243621826,0.5526058673858643,jumping
1783088304115958000,5.5749580078125,4.221248452751338,-1.4739640070423483,10.79961474341154,0.1649253517389297,-2.99426794052124,0.6610933542251587,jumping
1783088304126002000,5.585001953125,3.877145092467963,-1.850014995728433,9.110023241612314,-0.0761724784970283,-1.9645919799804688,0.7069553732872009,jumping
1783088304136046800,5.595046875,3.2515175776720047,-1.7052727627947926,7.839923226296901,-0.2354791760444641,-0.8444681763648987,0.685849666595459,jumping
1783088304146091000,5.605091064453125,2.489574297504127,-1.7906670269638298,7.214445641365647,-0.312334269285202,0.2218258678913116,0.5967669486999512,jumping
1783088304156135000,5.615135009765625,1.935117583474517,-2.605866388761997,6.33398967128098,-0.3741695284843445,1.2237359285354614,0.4128556251525879,jumping
1783088304166178800,5.6251787109375,1.8901763257250188,-3.013153642711043,5.586690710276365,-0.3834077715873718,2.131727933883667,0.1770441532135009,jumping
1783088304176222700,5.63522265625,2.0989175680994987,-3.005477701255679,5.434601037189364,-0.3106463253498077,2.887866735458374,-0.036690566688776,jumping
1783088304186268000,5.645267822265625,2.262992278012633,-2.813629433754086,6.209842482608557,-0.247333139181137,3.4428534507751465,-0.2136392444372177,jumping
1783088304196312000,5.65531201171875,2.1080638743683693,-2.8547210303381085,7.285619364741444,-0.2263651639223098,3.8226122856140137,-0.3786461651325226,jumping
1783088304206355700,5.665355712890625,2.125607129843533,-3.398156291876733,8.44720815193355,-0.2824630439281463,4.032079696655273,-0.5587648749351501,jumping
1783088304216400000,5.67539990234375,2.2143319997400046,-4.153137624077499,9.875111541807652,-0.4507648646831512,3.876361131668091,-0.7290624380111694,jumping
1783088304226444000,5.685444091796875,2.1264086554847657,-4.9253784263759846,10.437220524156093,-0.5605038404464722,3.4930505752563477,-0.8824562430381775,jumping
1783088304236488700,5.69548876953125,2.2346293762288987,-5.397449410402775,10.130087004351616,-0.5126550197601318,3.022305965423584,-1.0193030834197998,jumping
1783088304246532900,5.705532958984375,2.817492538923025,-4.87869763148278,9.947222838294506,-0.3918598592281341,2.435518503189087,-1.0970019102096558,jumping
1783088304256576800,5.71557666015625,3.6567765406638384,-3.4051103487983343,9.50253962740898,-0.2565132677555084,1.759349346160889,-1.025005340576172,jumping
1783088304266621000,5.725620849609375,3.6031618548542257,-2.2925255387499925,8.73733091570437,-0.0717554092407226,1.2141488790512085,-0.8125098943710327,jumping
1783088304276665000,5.7356650390625,3.1723189532727,-2.039672767448425,8.409686522790789,0.0416508130729198,0.7087659239768982,-0.5873231291770935,jumping
1783088304286709800,5.745709716796875,2.5526255047008393,-1.8598203504279256,8.431052551424504,0.1568266749382019,0.3109929859638214,-0.3785779476165771,jumping
1783088304296754000,5.75575390625,2.02471514455229,-1.903231329870224,9.10840937667489,0.2494854629039764,-0.1174229532480239,-0.1800395250320434,jumping
1783088304306798000,5.765798095703125,0.9455413134574888,-1.9636410826474424,9.018326370167731,0.3566771745681762,-0.4346754848957062,0.0084989545866847,jumping
1783088304316841700,5.775841796875,-0.6969745489120484,-1.9230127196609972,8.541459384036063,0.4557070136070251,-0.588458776473999,0.1127827614545822,jumping
1783088304326886000,5.785885986328125,-1.0718778288677333,-1.3622493067026138,7.999017225188016,0.5192252993583679,-0.5856126546859741,0.1267646253108978,jumping
1783088304336931000,5.79593115234375,-0.1745366288252174,-0.1762061694726348,7.202163082897663,0.4831915199756622,-0.550263524055481,0.1731572151184082,jumping
1783088304346975000,5.80597509765625,1.3382754336580631,1.2276613880366083,6.15509791598618,0.3575531840324402,-0.646874725818634,0.2415895462036132,jumping
1783088304357019000,5.816018798828125,1.8890677799612283,2.2737419278249145,2.958994182500243,0.1880396008491516,-0.649617075920105,0.3731711804866791,jumping
1783088304367062800,5.826062744140625,0.2745356107994914,3.1905563284918665,-1.8609487699359657,0.1696456670761108,-0.405831903219223,0.5119410157203674,jumping
1783088304377107000,5.83610693359375,-0.8656254806995392,2.9660394248366355,-5.5533349686414,0.3177705705165863,0.0651210248470306,0.4585456550121307,jumping
1783088304387152000,5.84615185546875,-1.6690686459913848,3.136626877644658,-9.193144592413306,0.3480834662914276,0.7326815128326416,0.3661105334758758,jumping
1783088304397195800,5.85619580078125,-2.5055928276300428,3.3274811656728387,-12.436526209902762,0.3215948343276977,1.6519968509674072,0.272061288356781,jumping
1783088304407240000,5.866239990234375,-4.723973810499906,1.079980179041624,-15.198565157151222,0.2224666476249694,2.725325584411621,0.0303053762763738,jumping
1783088304417283800,5.876283935546875,-7.340204941409826,-3.639551557357609,-20.034391907417778,-0.2211554646492004,4.0094451904296875,-0.7533479928970337,jumping
1783088304427327700,5.88632763671875,-2.264518464666605,-3.7262832076102494,-19.460583134925365,-0.986890196800232,4.300426006317139,-1.3663028478622437,jumping
1783088304437373000,5.896373046875,2.997015870119631,1.2540215716958043,-16.027329518443345,-1.2493326663970947,3.355541944503784,-1.3323253393173218,jumping
1783088304447416800,5.906416748046875,3.402832759255171,3.94374113266468,-14.299161325490472,-0.477508932352066,1.700495958328247,-1.0355712175369265,jumping
1783088304457461000,5.9164609375,0.6865958513040095,3.0348358976870773,-13.7401316044569,0.6422854661941528,0.0630265399813652,-0.8364941477775574,jumping
1783088304467505000,5.9265048828125,-1.5617980655789374,0.3894005918636918,-13.622521124076842,1.046117067337036,-1.350063681602478,-0.9351980686187744,jumping
1783088304477548800,5.936548828125,-2.5896532128468155,-0.5223842902034521,-15.68265098862052,0.6685485243797302,-2.1974713802337646,-1.119065523147583,jumping
1783088304487594000,5.946593994140625,-2.2130242781423033,0.226337104819715,-18.192995979213713,0.0062136929482221,-2.4262399673461914,-1.20364248752594,jumping
1783088304497638000,5.956637939453125,-1.5346923242494463,1.0492179610311985,-20.035729293501376,-0.5409616231918335,-2.446924924850464,-1.2002309560775757,jumping
1783088304507681800,5.966681884765625,-1.9071489417053755,2.6701541520163414,-22.10556339045763,-0.7329773902893066,-1.9551268815994265,-1.0700079202651978,jumping
1783088304517726000,5.976725830078125,-1.569996131212264,4.417160900951922,-21.08770269072056,-0.723255455493927,-1.298554301261902,-0.8290135264396667,jumping
1783088304527769900,5.986769775390625,-0.938938846452534,5.234462495726347,-18.838205269575116,-0.5548933744430542,-0.5116722583770752,-0.5686448216438293,jumping
1783088304537814000,5.99681396484375,-0.3724016723982989,5.530318250191211,-16.323180596733092,-0.3633945286273956,0.2491689175367355,-0.3181752264499664,jumping
1783088304547859000,6.00685888671875,0.2839725705780089,5.043686241370439,-13.536093717467784,-0.3291212618350982,0.706423819065094,-0.1472274512052536,jumping
1783088304557902800,6.01690283203125,0.5317560757912695,4.772164717695117,-10.928885266447066,-0.2954832315444946,0.9781758785247804,-0.0191114153712987,jumping
1783088304567947000,6.026947021484375,0.1310927700266242,4.342120857536792,-8.794330567777155,-0.213925763964653,1.0506165027618408,0.0472255311906337,jumping
1783088304577991000,6.036990966796875,-0.4479666164703667,4.161940523736178,-7.358587570318579,-0.0114158131182193,0.9122910499572754,0.0046952832490205,jumping
1783088304588034800,6.047034912109375,-1.1519038440018892,4.182584375575185,-5.679263780033588,0.3283015489578247,0.9067550897598268,-0.0339149571955204,jumping
1783088304598080000,6.057080078125,-1.2269734057724475,3.82332699304074,-1.4363058920383454,0.6270590424537659,0.8840891122817993,-0.0461519695818424,jumping
1783088304608124000,6.0671240234375,-0.942616950443387,2.5722894055917855,2.9898201133966444,0.5996191501617432,0.7513628005981445,-0.0917016118764877,jumping
1783088304618167800,6.077167724609375,-0.7513945597551762,1.766733193668723,6.844543238437176,0.4575993716716766,0.6000206470489502,-0.1696261465549469,jumping
1783088304628212000,6.0872119140625,-0.6496567712895572,0.864805104227364,10.094246460163593,0.2257941216230392,0.5011641383171082,-0.2426478862762451,jumping
1783088304638255900,6.097255859375,0.0049745004769414,-0.5879056869059801,12.771302938914298,-0.1500105857849121,0.3371976017951965,-0.330450177192688,jumping
1783088304648300800,6.10730078125,0.5518371061157434,-1.6557190428137778,14.414851066941022,-0.6103190779685974,0.0049256519414484,-0.4057108461856842,jumping
1783088304658344700,6.1173447265625,0.3230101572416722,-2.635143336650729,14.49357681313157,-0.960062563419342,-0.4877897500991821,-0.5405880808830261,jumping
1783088304668388900,6.127388916015625,-0.2477332363307476,-3.4065468113422392,12.841003667128083,-1.011698842048645,-0.954416573047638,-0.748619556427002,jumping
1783088304678432800,6.137432861328125,-1.422604114422202,-3.114957774411142,10.60750110297203,-0.6875341534614563,-1.0762983560562134,-0.8414835333824158,jumping
1783088304688477000,6.147476806640625,-2.171299498221278,-3.1361496155217288,10.087395863616466,-0.2300177216529846,-0.8879368305206299,-0.8378474712371826,jumping
1783088304698521900,6.15752197265625,-1.4030501036465166,-3.654195584259927,10.90502625195384,0.0076060406863689,-0.6723865866661072,-0.8561968207359314,jumping
1783088304708565800,6.167565673828125,-0.2881916495777666,-3.60050637190938,11.263084487831591,0.0677101239562034,-0.3890613913536072,-0.8372974395751953,jumping
1783088304718610000,6.17760986328125,0.6811791600175201,-3.0744556681528685,11.513936732965709,0.0579743981361389,-0.1071368604898452,-0.783875048160553,jumping
1783088304728653800,6.18765380859375,1.550971843399107,-2.95348827856034,11.384795973789693,-0.0082328515127301,0.1267233043909073,-0.6599951982498169,jumping
1783088304738697700,6.19769775390625,2.752396089634299,-2.4607164518103004,11.087063904058931,-0.1761796325445175,0.1434831619262695,-0.465447336435318,jumping
1783088304748743000,6.207742919921875,3.41634544404,-1.7170067474693058,9.770409058317542,-0.3867411315441131,0.047712430357933,-0.1765537559986114,jumping
1783088304758786800,6.217786865234375,3.5889509586721657,-1.4943559299468994,7.967286454406381,-0.4760680794715881,-0.0323453582823276,0.1581529229879379,jumping
1783088304768830700,6.227830810546875,3.4248116590902207,-1.977176856046915,6.123102356788515,-0.387158989906311,-0.0123636592179536,0.43570676445961,jumping
1783088304778875000,6.237875,3.0121409585371612,-2.5969813637778163,5.0505485283553595,-0.1754284799098968,0.0779777914285659,0.6092527508735657,jumping
1783088304788918800,6.247918701171875,2.427476737770438,-3.4176690938591956,4.935972885626554,0.0272021312266588,0.1554217189550399,0.6858071684837341,jumping
1783088304798963700,6.257963623046875,1.8152585935153065,-4.119057952082157,5.616918675279617,0.1653311401605606,0.2081453800201416,0.6777172088623047,jumping
1783088304809007900,6.2680078125,1.3366102769248187,-4.519296748824417,6.976357016214728,0.2019344121217727,0.1720299869775772,0.5956742763519287,jumping
1783088304819051800,6.2780517578125,0.9682993809714912,-4.701922429950535,8.293560728010535,0.1527064591646194,0.1165616437792778,0.4719788432121277,jumping
1783088304829096000,6.288095947265625,0.6040951896846294,-4.464574686294794,9.374577264362571,0.0658237636089325,0.0380396731197834,0.3308725655078888,jumping
1783088304839139600,6.2981396484375,0.4659855266332626,-3.953771528291702,10.24434700525999,-0.0341604985296726,-0.0768885612487793,0.2029282599687576,jumping
1783088304849184800,6.308184814453125,0.6937409738183021,-3.4450212111651894,10.648352168798446,-0.1499723196029663,-0.2398292869329452,0.1140889227390289,jumping
1783088304859229000,6.31822900390625,0.9514277411475776,-2.8830837859913707,10.57678798480034,-0.2825247943401336,-0.4308457374572754,0.087131567299366,jumping
1783088304869272800,6.32827294921875,1.1495507050044833,-2.260047456732392,10.316956314396858,-0.4093714356422424,-0.6744701266288757,0.0998494923114776,jumping
1783088304879316700,6.338316650390625,1.1300601148538292,-1.712017853140831,9.822775789892672,-0.4473970234394073,-0.9545301198959352,0.166214570403099,jumping
1783088304889361000,6.34836083984375,0.8729542161524295,-1.5400485905855894,9.22648046030402,-0.3367048799991607,-1.1880797147750854,0.2299299091100692,jumping
1783088304899404800,6.35840478515625,0.197449010118097,-1.4855080221027137,8.755207348656654,-0.1245120093226432,-1.4017878770828247,0.3382897078990936,jumping
1783088304909449700,6.36844970703125,0.0285943724520504,-1.302523736797273,8.4664921135962,0.1411899626255035,-1.6240752935409546,0.4231478869915008,jumping
1783088304919494000,6.378493896484375,0.3360015946313738,-0.9473325807884336,8.106319077521562,0.388304203748703,-1.8681306838989256,0.526931643486023,jumping
1783088304929537800,6.388537841796875,1.2846107712268828,0.0220747614249587,7.652208113077283,0.5412316918373108,-2.099750518798828,0.665890097618103,jumping
1783088304939582000,6.39858203125,3.0230317703858014,1.04673491204381,7.520014396071433,0.5564403533935547,-2.354177951812744,0.8108842372894287,jumping
1783088304949625900,6.4086259765625,4.169756750445067,2.108453165946901,6.430648549047112,0.3495391607284546,-2.630115509033203,1.0484789609909058,jumping
1783088304959670800,6.4186708984375,3.6515704964533446,4.052550759212672,3.7753456369429825,0.0287563726305961,-2.749734878540039,1.4550954103469849,jumping
1783088304969715000,6.42871484375,0.502680641824007,4.6015451161831615,0.4660229360342025,-0.1605866551399231,-2.563591718673706,1.9445279836654663,jumping
1783088304979758800,6.4387587890625,-3.0570740329802035,3.3413588843777773,-2.5594886684685942,-0.2023242861032486,-2.4684901237487793,2.0875136852264404,jumping
1783088304989802800,6.448802734375,-6.244611598172783,1.584012819996476,-8.192474096930027,-0.2325559556484222,-2.1194589138031006,1.7486637830734253,jumping
1783088304999846700,6.4588466796875,-9.710410808950662,-0.6708873369753361,-17.781688968229293,-0.2795568108558655,-0.7165969610214233,1.0333209037780762,jumping
1783088305009891800,6.468891845703125,-7.652331447196007,0.146846803997457,-26.649288185834884,-0.5727015733718872,1.756767749786377,0.3546038568019867,jumping
1783088305019935700,6.478935791015625,-2.3046450156107543,2.9723575219422576,-24.125519065523147,-0.3999320268630981,3.20027494430542,0.2165780961513519,jumping
1783088305029979600,6.488979736328125,-0.582872076652944,6.578138034862279,-16.120445024514197,0.533571183681488,2.754733085632324,0.4103896617889404,jumping
1783088305040023800,6.49902392578125,-3.725138129228353,5.707979002386331,-11.852350357174872,1.422074317932129,1.525420904159546,0.3152931630611419,jumping
1783088305050068000,6.50906787109375,-6.4598290508240455,3.350729354791343,-9.94542134183049,1.5091983079910278,0.5094674825668335,-0.0313806235790252,jumping
1783088305060112600,6.519112548828125,-5.482305037650466,1.7751807040184735,-9.169976482793688,0.9911219477653505,-0.3327632844448089,-0.4861025214195251,jumping
1783088305070156800,6.52915673828125,-4.409181300374866,0.883727539101243,-10.707529164910316,0.4182040989398956,-1.1319369077682495,-0.8656003475189209,jumping
1783088305080201000,6.539200927734375,-4.434979466237127,0.8902946425318717,-13.887814567017555,-0.037906102836132,-1.895447015762329,-1.037824273109436,jumping
1783088305090244900,6.549244873046875,-4.718051142452657,0.7290954880550503,-18.285049993532898,-0.2012534737586975,-2.3992156982421875,-1.1344250440597534,jumping
1783088305100288800,6.559288818359375,-5.004959328091144,1.5569135084077714,-21.862596345615387,-0.0523701310157775,-2.4514780044555664,-1.1525168418884275,jumping
1783088305110334000,6.569333984375,-5.442622431081533,3.048537090781331,-23.017674728000163,0.2918231785297394,-1.9702248573303225,-1.031055927276611,jumping
1783088305120377900,6.5793779296875,-5.278194085425138,4.997558111923933,-20.684321796560287,0.7721363306045532,-1.2464594841003418,-0.7514649629592896,jumping
1783088305130421800,6.589421875,-4.227643706746399,6.480903987556696,-16.560215913438796,1.2554702758789062,-0.6034698486328125,-0.4339945614337921,jumping
1783088305140465700,6.599465576171875,-3.116805448104441,6.81592504671812,-12.481845361053942,1.3586366176605225,-0.3399613499641418,-0.2245486676692962,jumping
1783088305150509800,6.609509765625,-2.7820190744817257,7.203166122460365,-9.662225746974348,1.161098837852478,-0.189534306526184,-0.1312773078680038,jumping
1783088305160553700,6.6195537109375,-2.689614347028732,7.202557050651311,-7.534935486349463,0.7553896307945251,-0.2313638478517532,-0.239538624882698,jumping
1783088305170598700,6.6295986328125,-2.5425597454994917,6.958286521995067,-7.218257893130183,0.3443173766136169,-0.3988676071166992,-0.5455957651138306,jumping
1783088305180642800,6.639642822265625,-2.5215891459241506,6.3598115102797745,-7.862488693848252,0.1411219388246536,-0.2888446450233459,-0.8910683989524841,jumping
1783088305190686700,6.649686767578125,-2.162944634591043,5.2285249223709105,-6.655468527302146,0.1247498840093612,-0.0827607214450836,-1.082902431488037,jumping
1783088305200731000,6.65973095703125,-1.923958768339455,3.303865312285721,-4.2942830015629525,0.3876768052577972,0.0335409790277481,-1.0043644905090332,jumping
1783088305210774800,6.66977490234375,-1.6399065566539763,1.5943568116173148,-1.657425262209773,0.9413533210754396,0.3479300737380981,-0.8863929510116577,jumping
1783088305220819700,6.67981982421875,-0.9010691345244646,1.0801531975209713,2.5736370208084582,1.220968246459961,0.768246591091156,-0.8915252685546875,jumping
1783088305230864000,6.68986376953125,1.0251984952792526,0.1133373331055045,7.540687181743979,1.0899274349212646,0.9431864023208618,-0.94535893201828,jumping
1783088305240908000,6.699907958984375,3.4656668165698647,-1.0758172141432762,11.346876869761942,0.8370081782341003,0.6398879885673523,-0.9827718138694764,jumping
1783088305250951700,6.70995166015625,5.459159724384546,-4.5789781873270865,11.794015072584152,0.6730482578277588,0.1671202033758163,-1.1946691274642944,jumping
1783088305260995800,6.719995849609375,5.975980535241961,-1.996161104110628,10.642406412136554,0.7075207829475403,0.1410789936780929,-1.1196964979171753,jumping
1783088305271041000,6.730041015625,4.015985700142384,2.457497782024741,13.811361441934109,0.6098432540893555,-0.2526680529117584,-0.5834245085716248,jumping
1783088305281084700,6.740084716796875,1.313359311327338,-0.8160591934978961,14.084924700570106,0.4074198007583618,-1.1493122577667236,-0.0808446034789085,jumping
1783088305291128800,6.75012890625,-0.1220566461339592,-4.499785408146679,11.001322726148366,0.3684872984886169,-1.681881070137024,-0.2516893148422241,jumping
1783088305301172700,6.7601728515625,0.97743107419312,-4.776100888100266,8.52854145027399,0.3031292557716369,-1.3776769638061523,-0.415493905544281,jumping
1783088305311217000,6.770216796875,3.0143302852749825,-2.7925813850283623,10.044608861291408,0.3106247186660766,-0.9587981104850768,-0.2736486196517944,jumping
1783088305321261800,6.78026171875,4.43300816616416,-0.7230052083559334,10.4728295976758,0.125519186258316,-0.8762267231941223,0.001596248243004,jumping
1783088305331305700,6.7903056640625,4.879101243847608,-0.3963964421004056,10.064861375725268,-0.0939657688140869,-0.8783503174781799,0.3028458654880523,jumping
1783088305341350000,6.800349853515625,4.259513009215891,-0.9317221930719912,9.63655880627632,-0.0002743047662079,-0.8514740467071533,0.6789678931236267,jumping
1783088305351393800,6.810393798828125,3.8853871433734897,-1.914016635517776,8.505724053788185,0.4043855667114258,-0.6060991883277893,0.85648512840271,jumping
1783088305361437700,6.820437744140625,4.651680727705359,-2.3510170368157324,8.39698544664979,0.7865960001945496,-0.2727429866790771,0.8299162983894348,jumping
1783088305371483000,6.83048291015625,5.001116096666455,-1.9406696646437047,7.989876471877098,0.5550892949104309,0.0724064260721206,0.9198275208473206,jumping
1783088305381526800,6.84052685546875,5.395697013777494,-1.6099427955448626,8.55215087392032,0.3814800679683685,0.6145265102386475,0.8818926811218262,jumping
1783088305391570700,6.85057080078125,5.373754646560549,-1.342365187189728,8.77257817017436,0.1949307024478912,1.010199785232544,0.8839371800422668,jumping
1783088305401614800,6.86061474609375,5.422647564545273,-1.401094147273153,8.410698330181837,0.0097056291997432,1.3909060955047607,0.7998474836349487,jumping
1783088305411658800,6.87065869140625,4.86898053958863,-1.0936765498302876,8.595889477881789,-0.199663832783699,1.726319432258606,0.7221074104309082,jumping
1783088305421704000,6.880703857421875,3.628272330713272,-1.281902827442437,8.902369502213597,-0.5284246206283569,1.8578388690948489,0.6869916915893555,jumping
1783088305431747800,6.890747802734375,2.548328392028808,-2.416405454788357,8.918876984900235,-0.7744245529174805,1.8317540884017944,0.6229256391525269,jumping
1783088305441791700,6.900791748046875,2.066609874212742,-3.7022628650754688,8.612600958707928,-0.7778301239013672,1.677720546722412,0.4466277062892914,jumping
1783088305451836000,6.9108359375,2.2088339868456126,-4.158174741461873,7.774843143621086,-0.6872447729110718,1.4976119995117188,0.2267829626798629,jumping
1783088305461879800,6.9208798828125,2.545563311229646,-3.6640044460907575,6.688479401022195,-0.5400384068489075,1.5209425687789917,0.0946663469076156,jumping
1783088305471923700,6.930923828125,2.591759245215356,-2.6964316258281467,6.410346934774518,-0.2915399074554443,1.7341400384902954,0.0921019911766052,jumping
1783088305481969000,6.940968994140625,2.841162752845883,-1.827680268193036,7.4279796709746115,-0.0746112540364265,1.9890273809432983,0.2283197790384292,jumping
1783088305492012800,6.9510126953125,3.785471309638023,-1.5105135762825608,9.37493382271528,0.0537411235272884,1.9195678234100344,0.440591037273407,jumping
1783088305502057000,6.961056884765625,4.3121261167675256,-1.3812497752487658,10.174421820640564,0.1535801440477371,1.635454535484314,0.5613526701927185,jumping
1783088305512100600,6.9711005859375,4.3292894330143925,-0.4871934420958161,10.340166509592532,0.1761064976453781,1.2496250867843628,0.6385883688926697,jumping
1783088305522144800,6.981144775390625,3.5058237626522777,0.5772955916948617,10.255769732028243,0.1618753671646118,0.7236858010292053,0.7779409885406494,jumping
1783088305532190000,6.99118994140625,1.760254353043437,1.4513086692504584,9.364713457474112,0.1599842607975006,0.0338096283376216,0.9417599439620972,jumping
1783088305542233600,7.001233642578125,0.9378529509119689,1.5793731774970887,8.069707548961043,0.169784277677536,-0.7251745462417603,1.1155891418457031,jumping
1783088305552277800,7.01127783203125,1.440973445457965,1.1574934807024897,6.627627749696374,0.3074795603752136,-1.5472618341445925,1.2329248189926147,jumping
1783088305562322000,7.021322021484375,1.8577932285144925,0.7402085643522441,3.816892868340015,0.6294458508491516,-2.139819622039795,1.263408899307251,jumping
1783088305572365800,7.03136572265625,1.523034619681537,1.0873638595521449,1.3675994355589152,1.0048983097076416,-2.3699114322662354,1.2789572477340698,jumping
1783088305582410800,7.04141064453125,0.7499658421263098,3.2443434482589364,-0.7536579746425152,1.276774525642395,-2.1201703548431396,1.48784077167511,jumping
1783088305592455000,7.051454833984375,-0.2112242913618683,4.901974754434824,-3.0233979733496903,1.572188377380371,-1.5062947273254397,1.7912733554840088,jumping
1783088305602498800,7.061498779296875,-3.0765088012903927,6.243886206507683,-7.579170349395275,1.6709941625595093,-0.3945589661598205,2.0463054180145264,jumping
1783088305612543000,7.07154296875,-5.985937865632772,4.999124046066403,-12.953738065904378,1.0610543489456177,1.0565201044082642,2.097541332244873,jumping
1783088305622586600,7.081586669921875,-8.114315921494365,-1.555146498735249,-20.96914294679165,-0.0693333074450492,2.677942991256714,1.5654207468032837,jumping
1783088305632631800,7.0916318359375,-9.789895264554024,-5.583545397987962,-29.20559880878925,-1.0806939601898191,4.275359153747559,0.6556300520896912,jumping
1783088305642676000,7.101676025390625,-5.603673409259319,-2.7446032438009977,-25.30406483273506,-0.9531392455101012,4.210028648376465,0.0501467771828174,jumping
1783088305652720000,7.11172021484375,-3.222939133441448,0.3991846115142107,-19.78979287745953,-0.0642762705683708,2.8364334106445312,-0.083596371114254,jumping
1783088305662764000,7.121763916015625,-4.43871368432939,1.520603447011858,-20.298191312408445,0.4462774693965912,1.7636481523513794,-0.0202441699802875,jumping
1783088305672808200,7.13180810546875,-5.214709162986278,0.2573876382522285,-23.704922832667823,0.5138309597969055,1.6632877588272097,-0.0383518002927303,jumping
1783088305682853000,7.14185302734375,-5.0209477553397415,-1.3739154868379235,-26.08566879892349,0.3470102548599243,2.0412230491638184,-0.230319932103157,jumping
1783088305692897000,7.15189697265625,-3.2180998767167326,-1.8373028136715293,-27.048752783334255,0.228046029806137,2.350452184677124,-0.4202970564365387,jumping
1783088305702941200,7.161941162109375,-1.328287123607099,-1.6181870384074746,-25.174441258478165,0.4429862201213836,2.1010138988494873,-0.4689579308032989,jumping
1783088305712985000,7.171985107421875,0.0269273160226643,-1.8844370514206588,-24.01356909512281,0.7130619287490845,1.5194907188415527,-0.4715555906295776,jumping
1783088305723029200,7.182029296875,1.5893326998449862,-0.9634678691618144,-22.72187158050537,0.8580408096313477,0.9446864128112792,-0.3820689022541046,jumping
1783088305733073200,7.1920732421875,2.658769126909971,0.1638866399951279,-19.74599815939665,0.9019123911857604,0.5115557909011841,-0.2847841680049896,jumping
1783088305743118000,7.2021181640625,2.6547286193475124,1.2125585114508866,-15.858806012427806,0.8231983780860901,0.3806469440460205,-0.2559151351451874,jumping
1783088305753162200,7.212162353515625,1.9356962601453065,2.4086174312606454,-10.933292561495303,0.7075274586677551,0.3660906255245209,-0.1764101684093475,jumping
1783088305763206100,7.2222060546875,1.2122038527943193,3.164340521739423,-6.166947928255796,0.625725507736206,0.2899184823036194,-0.0673836693167686,jumping
1783088305773250000,7.23225,0.6573844429321587,3.488905653338134,-2.6377304305344818,0.5263230204582214,0.3309386074542999,-0.0365903377532959,jumping
1783088305783294200,7.242294189453125,0.1207143646795302,4.17662517490983,0.4420850110858678,0.3753611147403717,0.5300226211547852,-0.0046924818307161,jumping
1783088305793339100,7.252339111328125,-0.0097600725193507,4.214935324081778,4.302211456474661,0.1721419394016266,0.5199734568595886,0.0539362095296382,jumping
1783088305803383000,7.262383056640625,0.0061716743722558,3.4818519354343413,7.291309100815654,-0.0245548486709594,0.3387517929077148,0.0629191398620605,jumping
1783088305813427200,7.27242724609375,-0.5838418350005522,2.940320169429481,9.946754051738976,-0.2035014331340789,0.0278077591210603,0.068204715847969,jumping
1783088305823471000,7.28247119140625,-1.5989966002471745,2.2034563854604956,13.047403022551537,-0.4142346084117889,-0.4995096623897552,0.0530185401439666,jumping
1783088305833515300,7.292515380859375,-2.3311504529595375,1.4035994080923495,15.18040523108244,-0.6292499899864197,-1.0279079675674438,0.0248859729617834,jumping
1783088305843560200,7.302560302734375,-2.3399413699194787,1.4702020241603255,16.56639664790034,-0.7372864484786987,-1.5771375894546509,0.0206430256366729,jumping
1783088305853604000,7.31260400390625,-1.6957975168325006,1.3927340229459106,16.736715805160998,-0.7201910614967346,-2.023909330368042,0.0821631103754043,jumping
1783088305863648300,7.322648193359375,-1.2180465144079178,1.0785090835757554,15.532728138178586,-0.6103691458702087,-2.196134567260742,0.1804938018321991,jumping
1783088305873692200,7.332692138671875,-0.2652572025835514,0.4457116771504282,14.304358894133568,-0.5110359191894531,-2.236387252807617,0.2842697203159332,jumping
1783088305883736000,7.342736083984375,0.7063646008089184,-0.5994784896694123,13.102429913246633,-0.3929848074913025,-2.1769914627075195,0.3456010818481445,jumping
1783088305893781200,7.35278125,0.9470961416840552,-1.4752477632425725,12.06436813700199,-0.2516846656799316,-1.9813016653060913,0.3140905499458313,jumping
1783088305903825200,7.3628251953125,0.7100476732358336,-1.9985428846806288,10.561664065426587,-0.2213766276836395,-1.5976200103759766,0.2137111872434616,jumping
1783088305913869000,7.372869140625,0.692412501693517,-2.239787197383493,8.780738095754385,-0.3637524247169494,-0.9557673335075378,0.0908771529793739,jumping
1783088305923913200,7.382913330078125,1.1648038037158548,-2.069199890705943,7.50053169696629,-0.4723794460296631,-0.218445673584938,-0.0278606303036212,jumping
1783088305933957000,7.39295703125,1.5062642482750117,-1.8228452492520213,6.161127843800187,-0.412382423877716,0.5642062425613403,-0.1198161244392395,jumping
1783088305944002000,7.403001953125,1.5019661126896735,-1.7544458128951488,5.209890364527702,-0.2582151889801025,1.2526251077651978,-0.1428499817848205,jumping
1783088305954046200,7.413046142578125,1.056900624488294,-2.017034965313226,5.074029941707849,-0.147115558385849,1.6869525909423828,-0.1348333358764648,jumping
1783088305964090000,7.423090087890625,0.3747714702695608,-2.5909844614505766,5.5130742699235675,-0.1292095184326172,1.921589970588684,-0.1560084968805313,jumping
1783088305974134300,7.43313427734375,-0.0045364743858575,-3.062649202764034,6.507170063191652,-0.2749326229095459,1.9362794160842896,-0.2056506127119064,jumping
1783088305984178200,7.44317822265625,-0.2793818817868828,-3.435736665469408,7.911240157535672,-0.460437536239624,1.766920804977417,-0.278028279542923,jumping
1783088305994222000,7.45322216796875,-0.3924860637236386,-3.7004786120072,9.218159206682444,-0.54344242811203,1.3980345726013184,-0.3547118604183197,jumping
1783088306004267300,7.463267333984375,-0.452466631303355,-3.7054543545931575,9.95773371091485,-0.4904400110244751,0.927528202533722,-0.413173496723175,jumping
1783088306014311200,7.473311279296875,-0.3299624240649864,-3.3285219068974254,10.38394252295494,-0.3839673697948456,0.4491181969642639,-0.4406341314315796,jumping
1783088306024355000,7.48335498046875,-0.0367313555479049,-2.5738866116553543,10.641678097862004,-0.3669591248035431,0.037147868424654,-0.4562654197216034,jumping
1783088306034399000,7.49339892578125,0.1571299688091501,-2.0858375756435095,10.918430507928132,-0.4656630456447601,-0.3470560014247894,-0.435376912355423,jumping
1783088306044443100,7.503443115234375,0.7136104072187095,-2.0228271388486028,11.044525908058882,-0.5645594000816345,-0.705362856388092,-0.3805033266544342,jumping
1783088306054488000,7.513488037109375,1.1671858765468002,-1.949805741779506,10.766460661828518,-0.5889646410942078,-1.0204824209213257,-0.291311115026474,jumping
1783088306064532000,7.523531982421875,1.5422566220238805,-1.6695830252543091,10.048435141581296,-0.5217289924621582,-1.2695388793945312,-0.1520284861326217,jumping
1783088306074576100,7.533576171875,2.113154183244705,-1.293456048722565,9.271985489416124,-0.3206161558628082,-1.469257116317749,0.0270746815949678,jumping
1783088306084620300,7.543620361328125,2.6472406016796826,-0.7322364164292812,8.789216585764288,-0.0077766878530383,-1.668335199356079,0.2358344793319702,jumping
1783088306094664200,7.553664306640625,2.551500007802248,-0.2604366505593061,8.786384577208757,0.2868674695491791,-1.896972894668579,0.4393197000026703,jumping
1783088306104709000,7.563709228515625,2.1495541148811577,-0.2089747588694095,9.240515999919175,0.4184885323047638,-2.076524019241333,0.5322798490524292,jumping
1783088306114753300,7.573753173828125,1.671577560072392,-0.2933499091237783,10.20367129600048,0.3457453548908233,-2.241131544113159,0.4969452917575836,jumping
1783088306124797200,7.583797119140625,1.4517407770574091,0.4247425388798117,9.770333070471882,0.1198076233267784,-2.290132522583008,0.4390297830104828,jumping
1783088306134841000,7.593841064453125,2.3008428468488153,1.8577599107667804,8.479180330255627,0.0338293313980102,-2.252079486846924,0.5124664306640625,jumping
1783088306144885000,7.603885009765625,3.4726085985317825,3.5598943755358454,7.436877847701311,0.0889279246330261,-2.3823788166046143,0.7555781006813049,jumping
