time,seconds_elapsed,accel_x,accel_y,accel_z,gyro_x,gyro_y,gyro_z,label
1783085175931576300,0.064576416015625,0.104933515767008,0.4639277903858572,0.4510439780890941,-0.120834968984127,-0.0426876172423362,0.0864992812275886,jumping
1783085175941620200,0.0746201171875,0.2437529345229268,0.4740600389521568,0.2072013194561004,-0.1108180209994316,-0.0373700819909572,0.1258805096149444,jumping
1783085175951665200,0.0846650390625,0.371346756517887,0.3960539853382855,-0.0509580338209867,-0.1111101359128952,-0.01062748208642,0.1395305842161178,jumping
1783085175961709300,0.094709228515625,0.36460626928173,0.2897717583760619,-0.129968442171812,-0.1074813082814216,0.0083363549783825,0.1126648858189582,jumping
1783085175971753200,0.104753173828125,0.3907706381078809,0.116933896292746,-0.1972813984662294,-0.0821778327226638,0.0394303873181343,0.0736475214362144,jumping
1783085175981798100,0.114798095703125,0.2884018582623451,0.0845187965087592,-0.3897919292688369,-0.0311484709382057,0.120658665895462,0.052922535687685,jumping
1783085175991842300,0.12484228515625,0.0930341113977134,0.2217176283255219,-0.3437432947993278,0.0139362877234816,0.1842808425426483,0.0452633239328861,jumping
1783085176001886200,0.13488623046875,0.1514422420289367,0.2899509143352508,-0.0264841022998094,0.0073689334094524,0.1936567723751068,0.0553575046360492,jumping
1783085176011931100,0.14493115234375,0.256872455271706,0.3200160899922251,0.1471399417251348,-0.0311124008148908,0.1691538095474243,0.065978392958641,jumping
1783085176021975300,0.154975341796875,0.4024856258209794,0.138873925422132,0.1873082859843969,-0.0574734359979629,0.1701612770557403,0.0424072816967964,jumping
1783085176032019200,0.165019287109375,0.6226786749277263,-0.095830464117974,-0.0034276363611221,-0.0333189368247985,0.1690735965967178,0.0037647583521902,jumping
1783085176042064100,0.175064208984375,0.8217864851035177,0.0858063521012663,0.0398369203478097,0.0165817774832248,0.1655856519937515,-0.0350340381264686,jumping
1783085176052108300,0.1851083984375,1.1193888640400025,0.4741441370390355,-0.131443775421381,0.0511030778288841,0.1977482289075851,-0.0069762868806719,jumping
1783085176062152200,0.195152099609375,0.8963404985673725,0.9298625366799532,-0.2286187860161065,0.071582518517971,0.1021420732140541,0.1695843636989593,jumping
1783085176072197000,0.205197021484375,0.2798329134900122,1.5429207850210367,0.548384408378601,0.0327507890760898,0.0989405065774917,0.1869795471429824,jumping
1783085176082241300,0.2152412109375,1.1515290924053638,0.5894138995118439,-0.0807511145383119,-0.0959850847721099,0.2096915245056152,0.1083015128970146,jumping
1783085176092285200,0.22528515625,1.6484436449833213,0.0453973309539258,-0.6622229690045118,-0.1891441792249679,0.069952517747879,0.1909804195165634,jumping
1783085176102330000,0.235330078125,0.8692479820456356,0.6273946705989539,0.517274399843812,-0.1530088186264038,-0.1672760248184204,0.3148320615291595,jumping
1783085176112374000,0.2453740234375,0.2998391250126063,0.4739399927690625,0.6809533884376288,-0.0450038872659206,-0.1700095385313034,0.354035347700119,jumping
1783085176122419200,0.255419189453125,-0.1077829138487577,-0.2580937406949699,-0.677998630285263,0.0691181570291519,-0.0328229181468486,0.314067929983139,jumping
1783085176132463000,0.265463134765625,-0.3066264470651745,-0.6187580674178897,-1.6178566374093293,0.2245558798313141,0.1660799533128738,0.2592412531375885,jumping
1783085176142507000,0.275507080078125,-0.2307054195644333,-0.234489870006591,-1.7493074270933866,0.4033466577529907,0.355865865945816,0.2682925462722778,jumping
1783085176152552200,0.28555224609375,-0.1447461784563958,0.5404543460316956,-1.3702262769311666,0.5315623879432678,0.5495998859405518,0.2945915460586548,jumping
1783085176162596400,0.295596435546875,0.2031677165584638,0.9474355297062546,-0.9456874439299106,0.582955002784729,0.6687172651290894,0.3278735876083374,jumping
1783085176172640000,0.305639892578125,0.5880692799698561,1.1832357516590506,-0.0106190091699361,0.5425536036491394,0.6361682415008545,0.3740366101264953,jumping
1783085176182685200,0.315685302734375,0.8342690961882472,1.222344065471366,1.065292897519469,0.4116965234279632,0.5394139885902405,0.4474037885665893,jumping
1783085176192729300,0.325729248046875,0.8347590716622769,1.09657680131644,1.6755314122647047,0.2343692928552627,0.4125782549381256,0.5203433036804199,jumping
1783085176202773000,0.33577294921875,0.7277462654031813,0.7619806165035814,2.157277987131476,0.0635674595832824,0.2320260405540466,0.5417697429656982,jumping
1783085176212818200,0.345818115234375,0.6540908082142471,0.3605748948737978,2.681305952888727,-0.1305900365114212,-0.0085599301382899,0.5290241241455078,jumping
1783085176222862300,0.3558623046875,0.5074029941707849,-0.0757647774931043,2.8757430678397413,-0.3186696469783783,-0.34388467669487,0.5170697569847107,jumping
1783085176232906000,0.365906005859375,0.5405370193464681,-0.5116264570847153,2.610122877162695,-0.4179657101631164,-0.6439252495765686,0.4911068677902221,jumping
1783085176242951200,0.375951171875,0.2252535473667085,-0.6015807226456701,2.2059967175930737,-0.3782241344451904,-1.0472702980041504,0.4696508347988128,jumping
1783085176252995300,0.385995361328125,-0.6575166910097002,-0.2755934492893517,2.3808009113132953,-0.2256094813346862,-0.7628555297851562,0.388193130493164,jumping
1783085176263039200,0.396039306640625,0.8588948572702705,-0.5215893404334784,-0.4683534248083829,-0.0308841988444328,-0.1282192319631576,0.3326640725135803,jumping
1783085176273084200,0.406084228515625,1.0237104486785829,0.0166086780387908,-1.0680717145830392,0.1019468903541565,0.215019479393959,0.4616820216178894,jumping
1783085176283128300,0.41612841796875,0.004219517391175,1.089794374634698,0.7196037293493748,0.1795223802328109,0.3589031398296356,0.6071321964263916,jumping
1783085176293173000,0.426173095703125,0.2967764860389754,0.971226739660278,1.5352309611707924,0.1600044220685959,0.4497170150279999,0.7072515487670898,jumping
1783085176303217200,0.436217041015625,0.9742708565965296,0.6474354419782757,1.7499743665695189,0.1114547252655029,0.4609329104423523,0.7495742440223694,jumping
1783085176313261300,0.44626123046875,1.209016674125567,0.1919889911465346,2.287086854827404,0.1105890870094299,0.5527507066726685,0.8086513876914978,jumping
1783085176323306000,0.456305908203125,0.7075506687883287,-0.3310462372463196,2.652794144153595,0.1556830704212188,0.6447381377220154,0.8420109748840332,jumping
1783085176333350100,0.46635009765625,0.2731167752438225,-0.8597199099175632,3.1060207269787785,0.2435702234506607,0.5602431297302246,0.7890382409095764,jumping
1783085176343394300,0.476394287109375,0.3458833025027066,-1.3610410999566316,3.6264755104243753,0.4100609421730041,0.490167886018753,0.6099180579185486,jumping
1783085176353439000,0.48643896484375,0.9326895767994224,-1.746343024329841,3.373282839643955,0.5843815207481384,0.7293670773506165,0.3612565398216247,jumping
1783085176363483100,0.496483154296875,1.3109560495778918,-1.492957461325824,2.7641847271054982,0.6522471308708191,0.9230198860168456,0.1407167166471481,jumping
1783085176373527300,0.50652734375,1.249626843868196,-0.5555696437075733,2.9548733031779526,0.590876042842865,0.9538254141807556,0.0253720376640558,jumping
1783085176383572200,0.516572265625,1.0514085298780351,0.1788332300405949,3.0081477972477675,0.5238423943519592,0.8663924932479858,0.0771713256835937,jumping
1783085176393616000,0.526615966796875,0.3356872679851949,0.4605415089484304,3.6324265277832746,0.5848710536956787,0.5303412675857544,0.5767541527748108,jumping
1783085176403659800,0.53665966796875,-1.5353528339847922,0.8206430141568184,4.653702588921785,0.6335400938987732,0.1889186352491378,1.029981017112732,jumping
1783085176413705000,0.546705078125,-2.2327710350111127,-0.3601014321431517,3.828314426064491,0.5945988893508911,0.0546010620892047,1.2288730144500732,jumping
1783085176423748900,0.556748779296875,-3.5769837497636674,-2.1417381804332134,2.012089763996005,0.3716403841972351,0.1223641335964202,0.9522057175636292,jumping
1783085176433792800,0.566792724609375,-4.580486253802478,-4.470262376542389,0.4155927254796028,0.0877780169248581,0.1969492435455322,0.1944403797388076,jumping
1783085176443838000,0.576837890625,-4.388055217976868,-5.585889330765605,-0.6995049441725015,0.0054887323640286,0.3426271080970764,-0.5777431726455688,jumping
1783085176453881900,0.5868818359375,-4.103017210124433,-4.035730557315051,-2.0018226370036603,0.1370650976896286,0.4550938010215759,-1.0588959455490112,jumping
1783085176463925800,0.59692578125,-3.3365596674025055,-1.5130089002296327,-2.778590853598714,0.3725434243679046,0.5312654972076416,-1.2821197509765625,jumping
1783085176473971000,0.606970947265625,-1.9476023865163328,0.0728166317446157,-2.987420651039481,0.5541213750839233,0.4643700420856476,-1.2032979726791382,jumping
1783085176484015000,0.61701513671875,-1.010099564216286,1.3607779189758002,-2.8123195201992988,0.6201967597007751,0.1645551174879074,-0.9113686680793762,jumping
1783085176494060000,0.62706005859375,-0.2783593703387305,2.0705270476564763,-2.6676234644949433,0.7316685914993286,-0.1614651530981063,-0.5601284503936768,jumping
1783085176504104000,0.63710400390625,0.1411508208455517,2.004196672658622,-3.8321348611354824,0.9870396256446838,-0.3545957505702972,-0.2440221607685089,jumping
1783085176514148000,0.647148193359375,0.5636601938458159,1.6630568383559583,-4.9888230168044565,1.1491854190826416,-0.5060222744941711,0.0087626753374934,jumping
1783085176524193000,0.657193115234375,1.114492104974389,0.898716068592295,-5.352253008848429,1.0796369314193726,-0.6586354970932007,0.1579044908285141,jumping
1783085176534237000,0.66723681640625,1.32191612727046,-0.211748205638118,-4.9904620161831375,0.7524629831314087,-0.8918360471725464,0.1248550489544868,jumping
1783085176544281000,0.677281005859375,1.790560059458017,-1.720485383365303,-4.792826981973648,0.3660364151000976,-1.0387849807739258,-0.1107886284589767,jumping
1783085176554325800,0.68732568359375,1.487409471809864,-2.679349265863001,-5.6610424791663885,-0.0626595690846443,-0.9211956858634948,-0.3389599919319153,jumping
1783085176564370000,0.697369873046875,0.5097353826411068,-1.8634246585302057,-6.918288858127593,-0.5138033032417297,-0.5995718240737915,-0.4101505279541015,jumping
1783085176574414000,0.7074140625,0.4803412746461108,-0.473183621443808,-7.916516636633872,-0.8025332093238831,-0.3670311272144317,-0.3315987586975097,jumping
1783085176584458800,0.717458740234375,1.0366644766673443,0.5402509689467028,-7.883256172066926,-0.9327279329299928,-0.4486772418022156,-0.1514263153076172,jumping
1783085176594503000,0.7275029296875,1.5534092996791005,0.8904447185270488,-7.427521405813097,-0.9784914255142212,-0.5788062214851379,-0.0623458996415138,jumping
1783085176604547000,0.737547119140625,1.7652460238508878,0.0423609406664036,-8.689063436141609,-0.9002736210823059,-0.5835509300231934,-0.056594006717205,jumping
1783085176614591700,0.747591796875,1.1482215752925724,-0.2169703607331961,-10.33942416679263,-0.6033139228820801,-0.3637109994888305,-0.0637529119849205,jumping
1783085176624636000,0.757635986328125,0.6293761998049915,0.8945907322905957,-12.220463538599011,-0.5650115609169006,0.6518478989601135,-0.1306203454732895,jumping
1783085176634680000,0.76768017578125,-0.6223973737683147,-0.4434868772404268,-16.146278553950786,-1.1139150857925415,2.143099308013916,-0.3338177800178528,jumping
1783085176644724700,0.777724853515625,-2.122811946167052,-2.8744182489767667,-16.40627155239582,-1.5737756490707395,3.275848627090454,-0.8119385242462158,jumping
1783085176654769000,0.787768798828125,-2.0224679501473903,-4.934944711622595,-12.65074646821022,-1.7651625871658323,4.056188583374023,-1.4441533088684082,jumping
1783085176664814000,0.79781396484375,-2.196358536154031,-4.269144468653201,-9.629197337597608,-1.9333741664886477,4.3553547859191895,-1.74242901802063,jumping
1783085176674857700,0.807857666015625,-1.633831036132574,0.1335752344921231,-6.355097925761342,-1.9281256198883057,4.092147350311279,-1.6256169080734253,jumping
1783085176684902000,0.81790185546875,0.19271102181077,2.1502689851522443,-4.782443535125255,-1.6684530973434448,3.609349250793457,-1.2480261325836182,jumping
1783085176694947000,0.827947021484375,2.215790527985245,3.427683707395196,-3.881435190877318,-1.1520096063613892,2.614412546157837,-0.6550952792167664,jumping
1783085176704991000,0.837990966796875,4.387657450830936,5.083920052081346,-1.759125641274452,-0.3191418945789337,1.1537251472473145,0.0385120213031768,jumping
1783085176715035000,0.848034912109375,5.618892021179199,5.5659992199033494,-0.7678828993499278,0.4081100523471832,0.0570912957191467,0.4768588840961456,jumping
1783085176725080000,0.858080078125,5.475439243534207,3.965155384354293,-1.78210611936748,0.7743282318115234,-0.493291974067688,0.5830129981040955,jumping
1783085176735124000,0.8681240234375,4.038753996789455,2.273447913314402,-3.2513702781558034,0.7611466646194458,-0.2757686972618103,0.5262399911880493,jumping
1783085176745168000,0.87816796875,2.393159311496466,1.4815432101249697,-4.549725497096777,0.8574073910713196,0.2827992439270019,0.4078542292118072,jumping
1783085176755213000,0.888213134765625,1.0363878516830505,1.33336267330572,-1.851606356573105,1.1514015197753906,0.4101646542549133,0.3166771233081817,jumping
1783085176765257000,0.898257080078125,-0.3954591612502932,0.7471937470644712,4.2749867649406195,1.502838373184204,0.2163760066032409,0.2002019137144088,jumping
1783085176775300900,0.90830078125,-2.009269299747795,0.3889103971939533,8.862196481779216,1.671556830406189,-0.0358013622462749,0.0210884269326925,jumping
1783085176785346000,0.918345947265625,-2.677743876492977,0.5574442054077983,11.464805330049993,1.5627530813217163,-0.3352916836738586,-0.0809170305728912,jumping
1783085176795390000,0.928389892578125,-3.170075558260083,0.9397107076078652,13.067012562906742,1.1940990686416626,-0.646430492401123,-0.0710090175271034,jumping
1783085176805434000,0.93843408203125,-3.837314309599995,1.878515990808606,13.313817578476666,0.819880485534668,-0.9560469388961792,0.1078166514635086,jumping
1783085176815479000,0.94847900390625,-4.540568961694836,2.5421570099174975,13.087396010243893,0.6610879898071289,-1.168217420578003,0.3099447786808014,jumping
1783085176825523000,0.95852294921875,-4.992238378205895,2.09285373801589,12.454001076316834,0.7102238535881042,-1.1047375202178955,0.4114085435867309,jumping
1783085176835567000,0.968567138671875,-5.105425196924806,0.8611375946957618,11.87439852285385,0.6702030897140503,-1.0157347917556765,0.3565305173397064,jumping
1783085176845612000,0.978612060546875,-5.1099207547783845,-0.1439749748881906,12.335859850060938,0.4204438030719757,-1.027169108390808,0.2232749760150909,jumping
1783085176855656000,0.988656005859375,-4.679684879179298,-0.4094963813658803,12.681079647153616,0.0885057896375656,-1.0876048803329468,0.1160501465201377,jumping
1783085176865700900,0.998700927734375,-4.205097820678353,-0.1362895349521189,12.754676798284054,-0.3086761832237243,-1.1529457569122314,0.0179086681455373,jumping
1783085176875744800,1.008744873046875,-3.356228828990459,-0.2227832847956568,12.290131533586978,-0.6383902430534363,-1.202397108078003,-0.0706386566162109,jumping
1783085176885789000,1.018788818359375,-2.740749783243239,-0.8864309528410435,11.610552356112002,-0.8358058333396912,-1.2815332412719729,-0.2122256159782409,jumping
1783085176895833900,1.028833740234375,-2.2104022590756416,-1.575810224318504,10.841768124008178,-0.8733102679252625,-1.3216990232467651,-0.3519356250762939,jumping
1783085176905877800,1.038877685546875,-1.6551123090922832,-1.7480413526803251,10.11722986086607,-0.7564055323600769,-1.399170160293579,-0.4356456995010376,jumping
1783085176915922000,1.048921875,-1.1593947112139311,-1.3494000542625784,9.647664137658476,-0.5611848831176758,-1.525791049003601,-0.4990401268005371,jumping
1783085176925967000,1.058967041015625,-0.3063484338413924,-0.9820053963713348,8.884707004272938,-0.2850481271743774,-1.5676207542419434,-0.5666937232017517,jumping
1783085176936010800,1.0690107421875,0.5941202505718917,-0.7609519310429692,7.709203088974952,0.0685179084539413,-1.433430790901184,-0.5744969844818115,jumping
1783085176946055000,1.079054931640625,0.9762474173665048,-0.6085671474669129,7.55909202248454,0.4094762802124023,-1.3341121673583984,-0.588884711265564,jumping
1783085176956100000,1.08910009765625,1.266780077112466,-0.9547863308604806,8.395392039978503,0.6211597919464111,-1.2885535955429075,-0.6851744055747986,jumping
1783085176966143700,1.099143798828125,1.446101309865713,-1.750294684565067,9.765758017641303,0.613474428653717,-1.519789218902588,-0.8734404444694519,jumping
1783085176976188000,1.10918798828125,1.0766256079167127,-2.4417585072316226,11.7869505410254,0.4415642321109772,-1.905469536781311,-0.9413706660270692,jumping
1783085176986233000,1.119233154296875,0.1202611227530054,-1.5412641038551926,11.77816283893585,0.2477121949195861,-2.0201051235198975,-0.8303520083427429,jumping
1783085176996276700,1.12927685546875,-0.3506253459306434,-0.0114900198508054,10.027703319197892,0.2175562977790832,-1.9517208337783811,-0.7068982720375061,jumping
1783085177006321000,1.13932080078125,-0.5829875562587753,0.3812579462120309,8.538319332444667,0.2593197226524353,-2.062020778656006,-0.6383335590362549,jumping
1783085177016366000,1.149365966796875,-0.9007629911847412,-0.516753517774865,8.072051481738686,0.3120016753673553,-2.7227542400360107,-0.785962700843811,jumping
1783085177026410000,1.159409912109375,-0.7867728932589292,-1.935762895640731,7.418283621868491,0.2797532081604004,-3.3629069328308105,-1.1164382696151731,jumping
1783085177036454000,1.169453857421875,-0.2023721457339823,-1.998205469419807,3.909571736559271,0.3140549957752228,-3.546048164367676,-1.4558743238449097,jumping
1783085177046499000,1.1794990234375,1.0239707070499655,-0.3334549058232456,-0.4198182342201471,0.5452237725257874,-3.0304791927337646,-1.517788290977478,jumping
1783085177056543000,1.18954296875,2.5350533153921364,1.8953471524916587,-6.054845982164144,0.6750699281692505,-1.570712327957153,-1.279281735420227,jumping
1783085177066587000,1.1995869140625,2.680641936022043,3.680794252850115,-10.058188473832606,0.6473035216331482,0.1468598991632461,-0.8486559987068176,jumping
1783085177076632000,1.209632080078125,1.8464516041584311,4.896190325814485,-9.956605583667754,0.9690174460411072,0.310010701417923,0.0173291638493537,jumping
1783085177086676000,1.219676025390625,0.055279550281912,8.600459854537249,-2.2252666507303713,0.9495965838432312,-0.0590368621051311,1.3322659730911257,jumping
1783085177096721000,1.229720947265625,0.3999740083262324,9.354333517757055,-3.563899519523978,-0.0112922182306647,0.5618680119514465,1.9721245765686035,jumping
1783085177106765000,1.23976513671875,0.8554603527769445,3.313244550527632,-6.763135121294856,-1.7989345788955688,1.310266137123108,1.9626752138137815,jumping
1783085177116809000,1.24980908203125,-2.8810125326752662,-0.5527947356341406,-11.89484042237997,-3.750541448593139,2.130438327789306,1.690671443939209,jumping
1783085177126854000,1.25985400390625,-5.4894215916574,-4.255297729608416,-15.76551164265871,-4.235068321228027,1.9584392309188845,1.164230227470398,jumping
1783085177136898000,1.26989794921875,-4.5437481762528416,-8.036175866237283,-13.62078860119581,-3.574258804321289,0.4239005148410797,0.5586885809898376,jumping
1783085177146942000,1.27994189453125,-3.901141177344322,-6.839213567847013,-13.788034342360495,-2.4556262493133545,-0.3023917078971863,0.2001930475234985,jumping
1783085177156987000,1.28998681640625,-2.8407570946544407,-3.17118205819726,-17.1925937792778,-0.9196176528930664,0.307942271232605,-0.2227251082658767,jumping
1783085177167031000,1.300031005859375,-1.478707402177155,-0.7219156595535576,-18.745369164967535,0.6590054631233215,1.4478249549865725,-0.7040594816207886,jumping
1783085177177075000,1.310074951171875,-1.2874758052691817,1.1839052484184502,-17.078326764106748,1.4203591346740725,1.8975249528884888,-0.90838223695755,jumping
1783085177187119900,1.320119873046875,-0.949089507458359,0.8889841444551945,-11.751340298461914,1.324522614479065,1.5959259271621704,-0.942376434803009,jumping
1783085177197163800,1.330163818359375,-0.7726346239216625,-0.6597099632702768,-5.170525737866759,0.9907307028770448,1.023674726486206,-0.9898152351379396,jumping
1783085177207208000,1.3402080078125,-1.629187009719014,-1.4320418048530816,-1.0042974538087843,0.6553066372871399,0.1896525770425796,-1.009720802307129,jumping
1783085177217252900,1.3502529296875,-2.005932994931936,-2.253067096325755,0.9914192675352096,0.386610597372055,-0.4399554133415222,-0.976484477519989,jumping
1783085177227296800,1.360296875,-1.865004621198028,-2.111121800634265,0.2348971356332302,0.2201230823993683,-0.5364135503768921,-0.9592655301094056,jumping
1783085177237341000,1.3703408203125,-1.547786052969843,-1.4772548652812838,-1.7535808666288852,0.0229170657694339,-0.2942568361759186,-0.9672107696533204,jumping
1783085177247385900,1.3803857421875,-1.136668865469098,-1.2413701799154282,-2.4241782807469368,-0.1535066962242126,-0.0560895539820194,-1.02850604057312,jumping
1783085177257429800,1.3904296875,-0.5995487053614109,-1.2347232892468571,-1.3527847282648089,-0.1758661866188049,-0.0385353490710258,-1.1426738500595093,jumping
1783085177267474000,1.400473876953125,-0.3560701308004558,-1.306926501800865,0.2443190439730882,-0.1116158291697502,-0.1273973137140274,-1.2750526666641235,jumping
1783085177277519000,1.41051904296875,-0.3043130555562675,-1.2990841177374124,1.2428396679461002,-0.0957589298486709,-0.2354261130094528,-1.3919832706451416,jumping
1783085177287562800,1.420562744140625,-0.1073812742453068,-0.9879936039354652,1.1601806739598512,-0.1763304769992828,-0.1569438278675079,-1.4663070440292358,jumping
1783085177297608000,1.43060791015625,0.0764494718216359,-0.5675608180135489,0.7585106753706932,-0.141461968421936,-0.2514040172100067,-1.4360172748565674,jumping
1783085177307652000,1.440652099609375,-0.0532024517469108,-0.0852620891567319,1.5962369262754916,-0.1096555739641189,-0.3879333734512329,-1.3976845741271973,jumping
1783085177317695700,1.45069580078125,0.2264429032817483,0.1197171703357249,0.8878390660732984,-0.1580390930175781,-0.3573448061943054,-1.3644548654556274,jumping
1783085177327741000,1.460740966796875,0.6554904458791018,0.7040328699257224,-0.43547874468863,-0.2649168074131012,-0.076924592256546,-1.2335325479507446,jumping
1783085177337785000,1.47078515625,0.6284187529496849,2.0144421723410484,-1.6073007566034794,-0.363776683807373,0.2656308710575104,-0.9823648929595948,jumping
1783085177347829000,1.4808291015625,0.4941944068990647,3.102767862662673,-1.6668319729804992,-0.3652502000331878,0.5295640230178833,-0.6784830093383789,jumping
1783085177357874000,1.4908740234375,0.4186468523532152,3.230479465818405,-0.7743079639613628,-0.2908411026000976,0.653988778591156,-0.4159294068813324,jumping
1783085177367918000,1.50091796875,0.2426050065968185,2.3627260331794617,0.3114677496165037,-0.1927171945571899,0.6880881786346436,-0.2668637335300445,jumping
1783085177377962000,1.5109619140625,-0.1305985567688941,1.1359367518022656,1.4073983619838952,-0.1400912702083587,0.5623065233230591,-0.2684778869152069,jumping
1783085177388007700,1.521007568359375,-0.1920040425851941,-0.1672686105836182,2.593152453139424,-0.1362364143133163,0.2808552980422973,-0.3632973432540893,jumping
1783085177398051800,1.5310517578125,0.181372246998921,-1.1591506733249872,3.184526108416915,-0.1364057213068008,0.0240601077675819,-0.5194733738899231,jumping
1783085177408095700,1.541095703125,0.3881188084248453,-1.360163732600212,2.820561863365769,-0.1535796523094177,-0.1605230420827865,-0.6410711407661438,jumping
1783085177418140700,1.551140625,0.2796088224105537,-0.699035134703666,2.38054898237884,-0.1654677838087082,-0.2482336014509201,-0.6436774730682373,jumping
1783085177428184800,1.561184814453125,0.1169238863553851,0.1141816019099205,1.7426976535648109,-0.1569941490888595,-0.21164071559906,-0.5505872368812561,jumping
1783085177438228700,1.571228759765625,0.1299312519665807,0.8606085293203591,1.1905056695967913,-0.1317558586597442,-0.1354189962148666,-0.3900483548641205,jumping
1783085177448273700,1.581273681640625,0.2779067677330225,1.5088386288076638,0.9781278242856264,-0.0966865643858909,-0.0485125929117202,-0.1776775121688842,jumping
1783085177458317800,1.59131787109375,0.2302935142952948,1.8221505449861288,0.9064251085996629,-0.0735828205943107,-0.0215433295816183,0.0394402705132961,jumping
1783085177468361700,1.60136181640625,0.122291550868377,1.6585039973571896,1.095422662845254,-0.0345272980630397,-0.0700786411762237,0.2074665576219558,jumping
1783085177478406700,1.61140673828125,0.0129403647895902,1.079007242356241,1.1943991699039935,0.0466102622449398,-0.1252390295267105,0.2879476845264435,jumping
1783085177488450800,1.621450927734375,-0.2583120596207678,0.0565869796186685,1.1101678120344876,0.1437413394451141,-0.1630953252315521,0.2694443166255951,jumping
1783085177498494700,1.63149462890625,-0.4534650677561759,-0.8788958080958574,1.048196801289916,0.1969448179006576,-0.1880130022764206,0.1640366911888122,jumping
1783085177508539600,1.64153955078125,-0.3056561407282948,-1.4453713881559669,1.0577665936678646,0.1633636802434921,-0.2231033444404602,0.0300916861742734,jumping
1783085177518583800,1.651583740234375,-0.0520589808002114,-1.6020523345559834,1.043077558580041,0.067732498049736,-0.2313231825828552,-0.0866106003522872,jumping
1783085177528628700,1.661628662109375,0.0401361955553293,-1.5186954214334487,0.6992898401170968,-0.0268027987331151,-0.1795540004968643,-0.1827294081449508,jumping
1783085177538672600,1.671672607421875,0.0281865223035216,-1.0962687582805752,0.1963712978839874,-0.0375924706459045,-0.0943695828318595,-0.2092221081256866,jumping
1783085177548716800,1.681716796875,0.0473674619831144,-0.3468290589202195,-0.084715926516056,0.024927370250225,0.0050459513440728,-0.1645310670137405,jumping
1783085177558761700,1.69176171875,0.114013332670927,0.2964713290799409,-0.1669055494248867,0.0915307253599166,0.0538782812654972,-0.0726020857691764,jumping
1783085177568805600,1.7018056640625,0.3061977002590894,0.601856543912366,0.0135170686990022,0.1455617398023605,0.0223778802901506,0.0293692871928215,jumping
1783085177578849800,1.711849853515625,0.4658985790021717,0.5523036276489496,0.2426286066681146,0.1855850964784622,-0.0392898358404636,0.09854007512331,jumping
1783085177588894700,1.721894775390625,0.3444496895030141,0.2829319754838943,0.3757335932999849,0.2211382985115051,-0.0884086489677429,0.1256987303495407,jumping
1783085177598938600,1.731938720703125,0.1144039394237101,-0.0553139640081673,0.3480599889546633,0.2524369657039642,-0.1307984888553619,0.1183785200119018,jumping
1783085177608982800,1.741982666015625,0.0010905717156827,-0.2855360205024481,0.5353939939022064,0.2893348038196563,-0.1991977840662002,0.0995952486991882,jumping
1783085177619027700,1.75202783203125,0.0432213020890951,-0.3575041821915656,0.5431453386813402,0.2831260859966278,-0.2375705242156982,0.0455326698720455,jumping
1783085177629071600,1.762071533203125,0.1297816874280571,-0.4455222189929336,0.3966612305164337,0.233251467347145,-0.2606958150863647,-0.0035459268838167,jumping
1783085177639115800,1.77211572265625,0.1877636285364627,-0.3892868292909115,0.2437982349693775,0.1459079384803772,-0.2334884852170944,-0.0536751113831996,jumping
1783085177649160700,1.78216064453125,0.2304940783686935,-0.3836998960040509,-0.1380617322564125,0.0303467102348804,-0.1368301212787628,-0.1129022091627121,jumping
1783085177659204600,1.79220458984375,0.2481716277480125,-0.3653092299193143,-0.5074357273966074,-0.0453295558691024,-0.0229602307081222,-0.143847107887268,jumping
1783085177669248800,1.802248779296875,0.2304161908268928,-0.1100069465737789,-0.6257511411756277,-0.031326126307249,0.0665949508547782,-0.1306351721286773,jumping
1783085177679293700,1.812293701171875,0.2554759594120085,0.2506880675483495,-0.579746345847845,0.0419112853705883,0.121120348572731,-0.0874830558896064,jumping
1783085177689337900,1.822337890625,0.273867648410052,0.356180751568079,-0.5206026674836873,0.1332896649837494,0.1381603181362152,-0.0388119220733642,jumping
1783085177699381800,1.8323818359375,0.21631255441159,0.1683804442830383,-0.4767652793228626,0.2077696025371551,0.1590975970029831,-0.0164471752941608,jumping
1783085177709426700,1.8424267578125,0.0992665760464966,-0.1403924402263015,-0.4639619118511676,0.2441901862621307,0.1836548745632171,-0.0201657470315694,jumping
1783085177719470800,1.852470947265625,0.0271722306944429,-0.4042136917226016,-0.2932891188472509,0.2402813136577606,0.1916718631982803,-0.0360867939889431,jumping
1783085177729514800,1.8625146484375,-0.0144872289054095,-0.5811348775967955,-0.0466296492278575,0.2307285368442535,0.1654634326696396,-0.0668183416128158,jumping
1783085177739559700,1.8725595703125,-0.122407651528716,-0.7276604868158698,0.1355173084706068,0.2439509779214859,0.1343228667974472,-0.1158026903867721,jumping
1783085177749603800,1.882603759765625,-0.1812206366337835,-0.7266700144737959,0.2442857262253761,0.2762940227985382,0.0936697125434875,-0.1573647856712341,jumping
1783085177759648800,1.892648681640625,-0.1855703562758862,-0.478442491820082,0.3723188164204359,0.2952044010162353,0.0373591482639312,-0.1692121028900146,jumping
1783085177769692700,1.902692626953125,-0.1639648197978735,-0.1320868225652724,0.4973147308766841,0.2836569249629974,-0.0145312119275331,-0.1493747532367706,jumping
1783085177779736800,1.91273681640625,-0.086919427909702,0.156970869257301,0.5458855773001909,0.2587462663650512,-0.0646023973822593,-0.1095477864146232,jumping
1783085177789781800,1.92278173828125,0.0564255054466426,0.3421463079314679,0.5510270318418741,0.2361413538455963,-0.1113459393382072,-0.0591080449521541,jumping
1783085177799825700,1.93282568359375,0.1151828148417174,0.338686888192594,0.5174474183231592,0.219770923256874,-0.1375403106212616,-0.0157703813165426,jumping
1783085177809869800,1.942869873046875,0.0641388563029468,0.2316987779833376,0.4848819502830505,0.2054958492517471,-0.1365541517734527,0.0133677972480654,jumping
1783085177819914800,1.952914794921875,0.0736081109158694,0.0627842998888343,0.513027848315239,0.1751656830310821,-0.1387041807174682,0.0285225566476583,jumping
1783085177829958700,1.962958740234375,0.064624155601859,-0.0758888422641903,0.5601923350721597,0.1406130194664001,-0.134833812713623,0.0186973568052053,jumping
1783085177840002800,1.9730029296875,-0.0483862836368381,-0.1710745056726038,0.4403238466322421,0.1279157996177673,-0.0896685719490051,-0.0113431140780448,jumping
1783085177850047700,1.9830478515625,-0.1147857783481478,-0.1268327744945883,0.2433814708620309,0.1514821052551269,-0.0156934149563312,-0.0272190161049366,jumping
1783085177860091600,1.993091552734375,-0.0661190703347325,0.1305542061705142,0.2396989829570054,0.1679363250732422,0.0229290630668401,0.0023632091470062,jumping
1783085177870135800,2.0031357421875,0.0644341859877109,0.3747340608686209,0.5799824926912784,0.1571350842714309,0.0028885102365165,0.0550855435431003,jumping
1783085177880180700,2.0131806640625,0.1377617263965308,0.4006244715915992,0.8760200334638356,0.1322308331727981,-0.0302511323243379,0.1048296988010406,jumping
1783085177890224600,2.023224609375,0.1254249535232782,0.3659089859107509,1.0585276411682367,0.1029104888439178,-0.0749613493680954,0.1623220294713974,jumping
1783085177900268800,2.033268798828125,0.0955268049962818,0.3926025662427768,1.21092944894433,0.0873280093073844,-0.1436742395162582,0.2255407720804214,jumping
1783085177910313700,2.043313720703125,0.0428977692231535,0.351854851192981,1.4385960488021372,0.1155042573809623,-0.2358545064926147,0.2859862744808197,jumping
1783085177920357600,2.053357666015625,-0.0223534322358667,0.2366893893448635,1.5778788472861052,0.2002550214529037,-0.3262340426445007,0.3364728689193725,jumping
1783085177930401800,2.06340185546875,-0.1266511343173682,0.0049501697532832,1.8256109145730732,0.3249388933181762,-0.4229515492916107,0.3548268377780914,jumping
1783085177940446700,2.07344677734375,-0.1567385218061506,-0.463839344917424,2.1585621817231178,0.4291397035121918,-0.4993978142738342,0.3321011662483215,jumping
1783085177950490600,2.08349072265625,-0.1384356801353395,-0.9356034914847464,2.3216069640666244,0.4511352777481079,-0.5031467080116272,0.2702316641807556,jumping
1783085177960534800,2.09353466796875,-0.0796443223401904,-1.1213675437018276,2.3348078064233064,0.3775287270545959,-0.4408261179924011,0.1974116414785385,jumping
1783085177970579700,2.103579833984375,0.1117389579981565,-1.043351991607249,2.3823013790041205,0.2751898467540741,-0.2482590675354004,0.1503621041774749,jumping
1783085177980623600,2.11362353515625,0.108047117742896,-0.752737791057676,1.9713573561131952,0.190234363079071,0.1279768198728561,0.1195339933037757,jumping
1783085177990667800,2.123667724609375,0.0429534449331462,-0.4252765361586585,1.4082891733437777,0.0953485965728759,0.5469794273376465,0.19084332883358,jumping
1783085178000712700,2.133712646484375,-0.1131222290500998,-0.0311308321271091,1.3259434830904009,0.029616056010127,0.7716771960258484,0.3734098970890045,jumping
1783085178010756600,2.143756591796875,-0.5226315429627895,0.1813231471601873,3.429079545667767,0.0396689549088478,0.6643893718719482,0.5060726404190063,jumping
1783085178020801800,2.1538017578125,0.2819439873598516,-0.2823579019229859,4.226714024680852,-0.0802721083164215,0.6379695534706116,0.436160683631897,jumping
1783085178030845700,2.163845703125,1.5981332614161072,-0.5852103103421629,3.0216391469836235,-0.1348847597837448,0.815244734287262,0.426815927028656,jumping
1783085178040889900,2.173889892578125,1.32680755257383,-0.1117311400178819,2.565891521248221,-0.116237923502922,0.8998386263847351,0.4392436742782593,jumping
1783085178050934800,2.183934814453125,0.7621960128199309,-0.1440178276492282,2.4536364304214713,-0.0115810241550207,0.9486812353134156,0.3991402089595794,jumping
1783085178060978700,2.193978759765625,0.9100009943250568,-0.323958982399106,2.148773778158426,0.1084703728556633,0.9933015704154968,0.2993634939193725,jumping
1783085178071022800,2.20402294921875,1.5379954574480652,-0.080449647373706,1.6483751097917556,0.1788910031318664,0.8700336813926697,0.2801040709018707,jumping
1783085178081067800,2.21406787109375,1.812062281692028,0.4968984051607549,1.38467331995666,0.1705305129289627,0.461816132068634,0.4086653590202331,jumping
1783085178091111700,2.224111572265625,1.7677213279232382,1.4877902878209948,-0.1279232000797986,-0.0144132319837808,0.4369267523288727,0.7172216176986694,jumping
1783085178101155800,2.23415576171875,0.8790435460034758,2.5060388178318735,-4.804457214012742,0.0167544148862361,0.1277774274349212,1.1170461177825928,jumping
1783085178111200800,2.24420068359375,0.3701804892174899,2.6568700152903792,-5.3318812519490715,0.1724228411912918,-0.1221397295594215,1.4101277589797974,jumping
1783085178121244700,2.25424462890625,0.1976377376232296,1.6719513618208468,-7.360945531621575,0.3172754347324371,-0.4004479348659515,1.4994657039642334,jumping
1783085178131288800,2.264288818359375,-0.505594629574567,0.1047990026671439,-8.738570102110504,0.4880562126636505,-0.5496147871017456,1.462552189826965,jumping
1783085178141333800,2.274333740234375,-1.3688653638415038,-1.2190330412272363,-9.712040455979109,0.5598013401031494,-0.542887806892395,1.3520667552947998,jumping
1783085178151377700,2.284377685546875,-2.124501945080608,-2.3616724324733016,-10.452083746767045,0.4799044132232666,-0.4091784954071045,1.1647546291351318,jumping
1783085178161421800,2.294421875,-2.355711478242278,-3.3287902024447917,-10.583896940022706,0.3274300396442413,-0.3034683465957641,0.8647953271865845,jumping
1783085178171466800,2.304466796875,-2.152221142133325,-4.278751378171146,-10.384365716803073,0.2189746797084808,-0.2318053394556045,0.4757780730724334,jumping
1783085178181510700,2.3145107421875,-1.777653670003265,-4.698232927782834,-10.036727168130874,0.0416661761701107,-0.3442862927913666,0.0797156617045402,jumping
1783085178191554800,2.324554931640625,-1.652639489237964,-4.565689958947897,-9.673727384197711,-0.0844936221837997,-0.3764671385288238,-0.25404953956604,jumping
1783085178201599700,2.334599853515625,-1.6205904462873937,-3.801370597298443,-10.109313096392157,-0.056826040148735,-0.3748782873153686,-0.4707544147968292,jumping
1783085178211643600,2.3446435546875,-1.364897190862894,-2.412551848100126,-10.200087007772922,0.0549841113388538,-0.396297812461853,-0.5571372509002686,jumping
1783085178221687800,2.354687744140625,-1.3663602491527795,-1.2074801852732897,-9.661821842348576,0.113702192902565,-0.4380480051040649,-0.5001174807548523,jumping
1783085178231732700,2.364732666015625,-1.3356618901588022,-0.183980548067484,-9.227556565102937,0.1581255793571472,-0.4849878251552582,-0.3953087925910949,jumping
1783085178241776600,2.374776611328125,-1.2203744458988308,0.2476084591736085,-7.689134698936343,0.288884550333023,-0.7934901118278503,-0.3560047149658203,jumping
1783085178251820800,2.38482080078125,-1.3090560611754656,-0.092696056816075,-5.204135162001848,0.4097436070442199,-1.0406591892242432,-0.3545232117176056,jumping
1783085178261865700,2.39486572265625,-1.9176298575788735,-0.4491480448072776,-4.925272627913952,0.3572038114070892,-0.9218658208847046,-0.4070646464824676,jumping
1783085178271909600,2.40490966796875,-2.5101103050544857,-0.6327866658356041,-5.2192263481497765,0.4034623801708221,-0.7515010237693787,-0.6440934538841248,jumping
1783085178281954800,2.414954833984375,-1.861091101016104,-1.4763083782114088,-3.50447702421844,0.6084176898002625,-0.7123653292655945,-1.0712789297103882,jumping
1783085178291998700,2.424998779296875,-0.7704471968799829,-2.069434283983707,-1.3066758880406617,0.616590142250061,-0.6040668487548828,-1.3923346996307373,jumping
1783085178302042600,2.435042724609375,-0.4993387840501964,-1.0888651309605688,-0.4878694416612386,0.2612193822860718,-0.0463436841964721,-1.527489185333252,jumping
1783085178312087800,2.445087890625,-0.1193909340560436,0.4881729546524584,-0.261941794425249,-0.2058966755867004,0.6162774562835693,-1.5450985431671145,jumping
1783085178322131700,2.455131591796875,0.6567642652072012,1.4536103703215717,1.3235393445581196,-0.5392927527427673,1.1590765714645386,-1.5055071115493774,jumping
1783085178332175600,2.465175537109375,1.2645501261033116,2.2500987480394543,3.2438656016141176,-0.6883850693702698,1.4991233348846436,-1.4024333953857422,jumping
1783085178342220800,2.475220703125,1.449917361022532,3.4320246592089534,5.1064633078008885,-0.710282564163208,1.6979390382766724,-1.1570945978164673,jumping
1783085178352264700,2.4852646484375,1.698506045138836,4.583581589469313,6.656774933725595,-0.6461225152015686,1.724910020828247,-0.8430224061012268,jumping
1783085178362308900,2.495308837890625,1.884855130702257,4.836474108259379,8.70032775747776,-0.5723066926002502,1.4424192905426023,-0.5517444014549255,jumping
1783085178372353800,2.505353759765625,2.004037974965572,4.059568821281195,11.067118848139048,-0.4745335876941681,0.9559062719345092,-0.3487704992294311,jumping
1783085178382397700,2.515397705078125,1.8559927549637856,3.0135505330741403,12.211232768917084,-0.2966035306453705,0.4994860291481018,-0.2124227732419967,jumping
1783085178392441000,2.525441162109375,1.3764599106237292,2.2231398678347465,12.11877192736268,-0.0319869928061962,0.208204299211502,-0.1310725659132003,jumping
1783085178402485800,2.53548583984375,0.8098759748183191,1.6107915213286876,11.565565213394164,0.1899487972259521,0.0475500300526618,-0.0845586732029914,jumping
1783085178412530000,2.545530029296875,0.3411771706383675,1.4501517543002962,11.17209547239542,0.2741214632987976,-0.0213731117546558,-0.0422634147107601,jumping
1783085178422574000,2.555573974609375,0.0714987906116992,1.5076386053681372,10.95707792623043,0.2268532216548919,0.0056913886219263,0.0098649533465504,jumping
1783085178432618800,2.56561865234375,0.0073368456941097,1.5516623098812996,10.738607024741173,0.1124081388115882,0.0618633143603801,0.0519125387072563,jumping
1783085178442663000,2.575662841796875,0.0665454059880226,1.3398229553610086,10.758822129774092,-0.0101008154451847,0.083763986825943,0.0827847719192504,jumping
1783085178452707000,2.58570703125,0.1984622788138687,1.1044104175515472,10.786071371227502,-0.0894656777381897,0.0298541449010372,0.1035515666007995,jumping
1783085178462751700,2.595751708984375,0.420355409836769,1.0559979034949094,10.736031621295211,-0.0991517901420593,-0.0843356847763061,0.1386887729167938,jumping
1783085178472796000,2.6057958984375,0.6004674276415258,1.0858654376879333,10.531311012738945,-0.0309311896562576,-0.2144457399845123,0.191049188375473,jumping
1783085178482839800,2.61583984375,0.693678576106578,1.1356718903210012,10.236004708850382,0.0594389326870441,-0.3179620504379272,0.2540986537933349,jumping
1783085178492885000,2.625885009765625,0.7458665901139379,1.217058160957694,9.995153633248805,0.1149069815874099,-0.4139343798160553,0.3340137600898742,jumping
1783085178502929000,2.635928955078125,0.7851662617798895,1.2370340504072606,9.822509247910975,0.140053316950798,-0.4986819326877594,0.4127863347530365,jumping
1783085178512972800,2.645972900390625,0.8816333433009683,1.1729959510650485,9.695127315101027,0.1556573063135147,-0.5660021901130676,0.4612883627414703,jumping
1783085178523018000,2.65601806640625,0.9170332310494036,0.8974171878881751,9.478494734954834,0.1742049753665924,-0.5699123740196228,0.4724252820014953,jumping
1783085178533062000,2.666061767578125,0.9114145143847912,0.6221665606871247,9.12752616507709,0.1907362937927246,-0.5265393257141113,0.4542162120342254,jumping
1783085178543105800,2.676105712890625,0.7407239665284753,0.4244050505537539,8.909035389843583,0.158674955368042,-0.4850418269634247,0.4166499078273773,jumping
1783085178553151000,2.68615087890625,0.5505952162958682,0.2094928279267623,8.977046265274286,0.0141025874763727,-0.5355433225631714,0.3611088991165161,jumping
1783085178563195000,2.69619482421875,0.3857208804376423,0.0543598233547992,8.896939878380298,-0.1354795694351196,-0.6439803242683411,0.2642577886581421,jumping
1783085178573238800,2.70623876953125,0.2771058996789157,-0.1161564091142266,7.890406043821573,-0.2300891727209091,-0.739035427570343,0.1329929679632187,jumping
1783085178583284000,2.716283935546875,0.1708038720376789,0.0905760689874179,6.27255642067492,-0.2842879295349121,-0.9441983699798584,0.0200687311589717,jumping
1783085178593327900,2.726327880859375,0.4031127447433769,0.7456647839315235,3.73182155251503,-0.23543781042099,-0.9942708015441896,-0.0133645944297313,jumping
1783085178603373000,2.736373046875,0.9775782275788484,1.4674066943533717,-0.7414502349764108,-0.2290014326572418,-0.4313439130783081,0.1070501133799552,jumping
1783085178613417000,2.7464169921875,1.577387702768296,1.8977493913277983,-6.271857917016744,-0.4222313463687897,0.9542458057403564,0.3169884383678436,jumping
1783085178623461000,2.756461181640625,2.9138953961014744,0.6745803462743759,-9.196227360859512,-0.9254431128501892,1.8248122930526731,0.6339485049247742,jumping
1783085178633505800,2.766505859375,2.24999894092679,0.9572082242451608,-5.220090271502733,-1.41753888130188,1.1340758800506592,1.0481268167495728,jumping
1783085178643550000,2.776550048828125,-0.3681493487160652,2.2741790040679275,-1.082546814659238,-1.3853919506072998,-0.7344998717308044,1.1693073511123655,jumping
1783085178653594000,2.786593994140625,-1.53524951974079,1.0070246137503531,-1.6905425189137455,-0.6936047077178955,-2.586057662963867,0.9573997855186462,jumping
1783085178663638800,2.796638671875,-1.1495463210903107,-0.9423236665852368,-6.2780883358389135,0.223741203546524,-3.4820075035095215,0.6871793270111084,jumping
1783085178673683000,2.806682861328125,-2.0173691657036543,-0.9608273645903914,-11.859285124874114,0.7575287222862244,-3.633882999420166,0.5844998359680176,jumping
1783085178683727000,2.81672705078125,-2.7736078044891355,-0.4550683017017319,-16.892970196712017,0.797167181968689,-2.8486359119415283,0.5785897374153137,jumping
1783085178693771800,2.826771728515625,-3.2790377450212835,-0.1907902098160237,-21.412276005625724,0.4330078661441803,-1.3282194137573242,0.5889068245887756,jumping
1783085178703816000,2.83681591796875,-4.196114596016705,-0.1516726897839456,-23.163386682748794,-0.0302332192659378,0.2967776656150818,0.5142754912376404,jumping
1783085178713860000,2.846860107421875,-4.47555814486295,-1.206029255812615,-20.985993543827533,-0.3068235218524933,1.5447311401367188,0.254737377166748,jumping
1783085178723904800,2.85690478515625,-4.227184564802051,-2.7420255022674795,-16.472474501621722,-0.3550224304199219,2.1869969367980957,-0.0661744177341461,jumping
1783085178733949000,2.866948974609375,-3.858144039399922,-3.2487051505997777,-11.190012237358092,-0.3033334016799927,2.2137885093688965,-0.3724983930587768,jumping
1783085178743993000,2.8769931640625,-2.860960509249568,-3.4950536545738577,-6.727965608236193,-0.2782721221446991,1.9722720384597776,-0.6762126684188843,jumping
1783085178754037800,2.887037841796875,-1.652878266429901,-3.463804822090268,-4.0364842982918026,-0.3584881424903869,1.6571847200393677,-0.9024481773376464,jumping
1783085178764082000,2.89708203125,-0.7919614018127322,-2.4629890729174018,-2.4284791928112504,-0.4982143640518188,1.336643934249878,-0.9771645069122314,jumping
1783085178774126000,2.9071259765625,-0.205820094230771,-1.1499188076645137,-1.4200064991444348,-0.5991723537445068,0.9736012816429138,-0.911073923110962,jumping
1783085178784170800,2.917170654296875,0.3121608464471995,-0.0517308448243886,-0.5586310771048069,-0.5830807685852051,0.5735757946968079,-0.7518643736839294,jumping
1783085178794215000,2.92721484375,0.7062408282987773,0.6492992630887776,-0.0110866266816854,-0.4410974979400635,0.1966359913349151,-0.5321860909461975,jumping
1783085178804258800,2.9372587890625,0.5999234569579363,1.132174549724534,0.1178641628801822,-0.259518414735794,-0.1215302348136901,-0.2908557057380676,jumping
1783085178814304000,2.947303955078125,0.4976395789168775,1.1480099783685058,0.2111240458577871,-0.1345405131578445,-0.3468254208564758,-0.1111461520195007,jumping
1783085178824348000,2.957347900390625,0.4062891828224063,0.5513380705524236,0.2325485266804695,-0.1052020192146301,-0.5000054836273193,-0.0147337196394801,jumping
1783085178834391800,2.967391845703125,0.2547099434755742,-0.1426501560252159,0.2497282095402479,-0.1199186444282531,-0.5744810104370117,0.0081239249557256,jumping
1783085178844437000,2.97743701171875,0.1151170561291277,-0.6521680965233594,0.3099935854107141,-0.1341164410114288,-0.5607123374938965,-0.0145593639463186,jumping
1783085178854481000,2.98748095703125,0.0137770348094403,-0.9384685985922812,0.2882616460740566,-0.1361441612243652,-0.4261244535446167,-0.0449620112776756,jumping
1783085178864524800,2.99752490234375,-0.0586871667683124,-1.002929088065028,0.3713374041676521,-0.1360962241888046,-0.2224852889776229,-0.0699890702962875,jumping
1783085178874570000,3.007570068359375,-0.1068159685127437,-0.840456041194871,0.8670090440124273,-0.13883076608181,-0.0366959869861602,-0.0947103947401046,jumping
1783085178884614000,3.01761376953125,-0.043340836815536,-0.6927518897157162,1.470935891392827,-0.1364929527044296,0.1237915083765983,-0.1238584816455841,jumping
1783085178894657800,3.02765771484375,0.0559619795881211,-0.5805057859130204,2.1135218475133177,-0.133270263671875,0.2649379670619964,-0.1437482982873916,jumping
1783085178904703000,3.037702880859375,0.1497564078338444,-0.3999347722943872,2.8202847999900578,-0.1260001957416534,0.3945308029651642,-0.1537868678569793,jumping
1783085178914747000,3.047746826171875,0.3053054275944828,-0.167191234498471,3.418074752050638,-0.1184823662042617,0.5149309635162354,-0.1248673349618911,jumping
1783085178924790800,3.057790771484375,0.4237453445360064,0.1686990817781537,4.075826128599047,-0.1203939169645309,0.5918642282485962,-0.0630225241184234,jumping
1783085178934836000,3.0678359375,0.5130123584851622,0.4133095099132507,4.874328038096428,-0.1322614997625351,0.6011365652084351,0.0189501028507947,jumping
1783085178944880000,3.077880126953125,0.6125212188549339,0.4521406872846186,5.641486130303144,-0.1310310959815979,0.5373653173446655,0.0993702188134193,jumping
1783085178954924800,3.0879248046875,0.6435844656385481,0.4079488596629351,6.243921277821063,-0.1012873128056526,0.4314050376415252,0.190843403339386,jumping
1783085178964969000,3.097968994140625,0.5699680252857506,0.3958901000134646,6.751064159750938,-0.0629607513546943,0.2654870152473449,0.282334566116333,jumping
1783085178975013000,3.10801318359375,0.458107048343122,0.2739794382214546,7.153662379100918,-0.0401686169207096,0.034980833530426,0.3470786809921264,jumping
1783085178985057800,3.118057861328125,0.358884019177407,0.0124549193602055,7.120029574090242,-0.0350649543106555,-0.1328587234020233,0.346508651971817,jumping
1783085178995102000,3.12810205078125,0.3801126851670444,-0.2310805730197578,6.531429475179314,-0.036540612578392,-0.2658623456954956,0.3179401159286499,jumping
1783085179005146000,3.13814599609375,0.3822027893140912,-0.0955978244058787,5.694155644217133,0.0021790163591504,-0.2779955267906189,0.3237973749637604,jumping
1783085179015190800,3.148190673828125,0.343735403753817,0.4499008724685758,4.676258119601011,0.0606681555509567,-0.150515615940094,0.3901819884777069,jumping
1783085179025235000,3.15823486328125,0.2504287590250372,1.008160193651542,3.869115223008394,0.1044918745756149,0.1043010875582695,0.5156470537185669,jumping
1783085179035279000,3.168279052734375,0.1309266196794807,1.2628778089769184,3.356702876242995,0.1256016939878463,0.4122383892536163,0.6806192398071289,jumping
1783085179045323800,3.17832373046875,-0.0994943203877657,1.2721956724204122,3.150577077063918,0.1892267763614654,0.7874364256858826,0.8373528122901917,jumping
1783085179055368000,3.188367919921875,-0.3426041347015648,1.1820168773885815,2.667346401119232,0.2529588937759399,1.224002242088318,0.9579753875732422,jumping
1783085179065412000,3.198412109375,-0.4685496780328452,0.9355709774546324,2.334367661440372,0.2476317882537841,1.4248216152191162,1.0194847583770752,jumping
1783085179075456800,3.208456787109375,-0.6652039575766772,0.5170342344123869,3.0792227364242075,0.2232300341129303,1.255337476730347,0.9448049068450928,jumping
1783085179085501000,3.2185009765625,-0.298118292569369,0.0256235399477183,3.673661039969325,0.1957947760820388,0.8910031318664551,0.7766008973121643,jumping
1783085179095545000,3.228545166015625,0.5831624379016459,-0.0052381198491901,3.2577900820702315,0.1107219532132148,0.4063200652599334,0.6695423722267151,jumping
1783085179105589800,3.23858984375,1.3181168811179698,0.606073284824565,1.9552467637896536,-0.0536533221602439,0.0146455857902765,0.6870965361595154,jumping
1783085179115634000,3.248634033203125,1.1714296515963971,1.4173689902476965,-0.3682259941488504,-0.2642025649547577,-0.1685255616903305,0.8302720785140991,jumping
1783085179125677800,3.258677734375,0.6782395994342864,2.1537024667322635,-3.1015801141828296,-0.3852793276309967,-0.2114679515361786,1.0760719776153564,jumping
1783085179135722800,3.26872265625,0.2556897482931614,2.6060914296895263,-5.4209203023612496,-0.2681367397308349,-0.1764276772737503,1.3321141004562378,jumping
1783085179145767000,3.278766845703125,-0.4285455113593489,2.852000957724452,-6.741304397758841,0.0784511417150497,-0.4733807444572449,1.570932149887085,jumping
1783085179155810800,3.288810791015625,-0.7402486771669239,2.899901649801433,-5.985790566116571,0.6959074139595032,-1.2241804599761963,1.8074061870574951,jumping
1783085179165856000,3.29885595703125,-0.5634722335256636,2.0442638946309684,-5.606372146824002,1.2358283996582031,-1.966501235961914,1.9381424188613892,jumping
1783085179175900000,3.30889990234375,-1.6056556197449563,-0.1134830251865088,-7.361793088361621,1.437650203704834,-2.31954574584961,1.9218976497650144,jumping
1783085179185943800,3.31894384765625,-2.227613506117463,-1.798013005812466,-10.360839879786967,1.263054370880127,-2.182339668273926,1.855218768119812,jumping
1783085179195989000,3.328989013671875,-2.3946112638704475,-2.1826779474563893,-13.216881637334822,0.7585021257400513,-1.5481321811676023,1.758542776107788,jumping
1783085179206033000,3.339032958984375,-2.7848353009462357,-3.1012928216740487,-17.160000838708875,0.1146376356482505,-0.497408777475357,1.512060523033142,jumping
1783085179216076800,3.349076904296875,-2.836848104517162,-4.276077775047719,-18.565934973359106,-0.2426613718271255,0.3087007701396942,1.1325739622116089,jumping
1783085179226122000,3.3591220703125,-1.8071400228589771,-4.869225161999464,-16.36459046548605,-0.3587436079978943,0.5052803158760071,0.6766605377197266,jumping
1783085179236166000,3.369165771484375,-0.7739489213906228,-5.579626763239503,-12.144711839783191,-0.3773937225341797,-0.0322571955621242,0.178218275308609,jumping
1783085179246209800,3.379209716796875,-1.073211269428581,-6.674687022513151,-8.849268026623129,-0.563662588596344,-0.4863023161888122,-0.3249239027500152,jumping
1783085179256255000,3.3892548828125,-2.54897838037014,-7.280489600637555,-11.754749230122563,-0.9605167508125304,0.1276276856660843,-0.6978500485420227,jumping
1783085179266299100,3.399299072265625,-4.02197032750994,-6.371031992474198,-18.366815253549813,-1.1452778577804563,1.2876991033554075,-0.9279115796089172,jumping
1783085179276342800,3.4093427734375,-3.9554368311554193,-3.9001720400512214,-20.03353616737127,-0.7911698222160339,1.8816205263137815,-0.9236704707145692,jumping
1783085179286388000,3.419387939453125,-2.76096371923238,-1.2984763611026109,-16.247255879437922,-0.1326307207345962,2.0549302101135254,-0.8397234082221985,jumping
1783085179296432000,3.42943212890625,-1.9096397356078028,0.432036933671683,-12.035177113831043,0.445121556520462,2.0619537830352783,-0.7589697241783142,jumping
1783085179306476800,3.439476806640625,-1.108933155672997,1.3061809441305696,-7.4026008995682,0.7572371363639832,1.9957653284072876,-0.6486782431602478,jumping
1783085179316521000,3.44952099609375,-0.1434050660457462,1.7308888500884174,-3.6843858476012943,0.8134258389472961,2.1398677825927734,-0.5102734565734863,jumping
1783085179326565000,3.459565185546875,0.9426847549825906,2.204269747669995,-1.485965702742338,0.6245710849761963,2.4782567024230957,-0.3714588284492492,jumping
1783085179336609800,3.46960986328125,2.078677182494849,2.558618607635796,0.0942190833985805,0.3011736273765564,2.528200387954712,-0.2307078540325164,jumping
1783085179346654000,3.479654052734375,3.0736110340222713,3.643431029139459,3.872452258476615,-0.0862196385860443,1.9983232021331787,0.0076093808747828,jumping
1783085179356698000,3.489697998046875,4.010557829874753,3.9859705011069777,6.785437553995847,-0.3498744964599609,1.4110333919525146,0.15949746966362,jumping
1783085179366742800,3.49974267578125,3.991398955896496,3.835256792548299,6.8318766490876675,-0.398531436920166,1.037999987602234,0.3656301498413086,jumping
1783085179376787000,3.509786865234375,2.933959694486856,4.575332232040166,5.762038509353995,-0.1414231956005096,1.047860860824585,0.7275905013084412,jumping
1783085179386831000,3.5198310546875,0.7766939823150635,5.625446849650144,6.12939824206233,0.2737851440906524,0.8985447287559509,1.0945899486541748,jumping
1783085179396876300,3.529876220703125,-1.5112249394223094,5.348712559762597,8.98600873940885,0.7165119647979736,0.3899938464164734,1.3330185413360596,jumping
1783085179406920400,3.53992041015625,-4.42649776135683,3.9305592872694137,12.246214065927266,1.0997073650360107,-0.3060151040554046,1.3082278966903689,jumping
1783085179416964600,3.549964599609375,-6.894774711549282,1.5036111034177242,14.323288051009175,1.244023323059082,-1.201746106147766,0.953853726387024,jumping
1783085179427009300,3.56000927734375,-7.51479870724976,-0.5123478301618248,16.26100617237091,1.2016674280166626,-2.1393067836761475,0.5406554341316223,jumping
1783085179437053400,3.570053466796875,-6.965381448692083,-0.9164666101425886,17.10993653885722,0.8911172747612,-2.6374974250793457,0.2165684849023819,jumping
1783085179447097600,3.58009765625,-5.315549710351228,-0.0134003652504645,15.680831956499814,0.4581390619277954,-2.7768399715423584,0.0432437285780906,jumping
1783085179457142300,3.590142333984375,-3.0841183995112775,0.712337610803917,14.71148306647539,0.0197430960834026,-2.83252215385437,0.0110208112746477,jumping
1783085179467186400,3.6001865234375,-0.966349123686552,0.7895715840667485,13.157846095520258,-0.3224197030067444,-2.7128777503967285,0.06068567186594,jumping
1783085179477230600,3.610230712890625,1.1271566484972837,1.0433997762717306,10.92505430998206,-0.5038504600524902,-2.4654901027679443,0.2262083292007446,jumping
1783085179487275300,3.620275146484375,2.3771716149002313,1.4336976092360914,9.25537279278934,-0.5240200757980347,-2.280031681060791,0.3929727077484131,jumping
1783085179497319400,3.6303193359375,2.747053267301619,1.095395628707856,8.342643615609408,-0.4407278299331665,-2.1538400650024414,0.4813912510871887,jumping
1783085179507363300,3.64036328125,2.6464988434016705,-0.124621199392341,7.296992407149076,-0.3095914721488952,-2.0012552738189697,0.4647156894207001,jumping
1783085179517408300,3.650408203125,2.2870094056770203,-1.1717176747575402,6.695797615081071,-0.2071212828159332,-1.865339756011963,0.3754361569881439,jumping
1783085179527452400,3.660452392578125,1.8372623355306683,-1.7030293677821755,6.586058306467533,-0.0631959736347198,-1.8125386238098145,0.2594419121742248,jumping
1783085179537496300,3.670496337890625,1.150335864032805,-2.0766700804561373,7.0582228139966725,0.146006777882576,-1.7929891347885132,0.0891178473830223,jumping
1783085179547541500,3.68054150390625,1.0605699606508017,-2.1997154453665018,7.705638089969754,0.3364867269992828,-1.7590388059616089,-0.0986508429050445,jumping
1783085179557585400,3.69058544921875,1.2808514186933635,-2.2696916295208034,8.08146403772831,0.4593157172203064,-1.6089569330215454,-0.2822276055812835,jumping
1783085179567629300,3.70062939453125,1.5196359171539544,-2.1596423781752585,8.309014902251958,0.563940703868866,-1.3967500925064087,-0.410181850194931,jumping
1783085179577674500,3.710674560546875,1.7884350301280616,-1.6960934310391544,8.542592187458276,0.6376662850379944,-1.1526117324829102,-0.465218722820282,jumping
1783085179587718400,3.720718505859375,2.4252041166633367,-0.6680443686343729,8.763231080636382,0.646772563457489,-0.8171233534812927,-0.3881406188011169,jumping
1783085179597762300,3.73076220703125,3.363914999578893,0.8656533185545354,7.988032889837026,0.5696051120758057,-0.4618653953075409,-0.1336015313863754,jumping
1783085179607807500,3.740807373046875,4.444595435844361,2.169414122866094,7.828646045479178,0.4288247525691986,-0.4796053767204284,0.1839140206575393,jumping
1783085179617851400,3.750851318359375,5.080654912805557,2.265649660653621,8.273843051105738,0.4251141548156738,-0.6701313853263855,0.4006252884864807,jumping
1783085179627895300,3.760895263671875,5.12373008442223,1.2748369807094335,8.802793860217928,0.5874070525169373,-0.9592049717903136,0.4606750011444092,jumping
1783085179637940500,3.7709404296875,4.325542939962446,0.3438786846820265,9.4772099558413,0.7385305762290955,-1.433754563331604,0.4716818332672119,jumping
1783085179647984400,3.780984375,3.2545985925525427,-0.1409088287832215,9.584797054857017,0.8734064102172852,-1.9966979026794431,0.4944205284118652,jumping
1783085179658028300,3.7910283203125,1.9992031021550296,0.2892795726786367,8.210553943499923,1.105475902557373,-2.249375343322754,0.5911039113998413,jumping
1783085179668073500,3.801073486328125,0.2996133534327149,1.7652091989718377,3.738248370692134,1.2512524127960205,-1.7085285186767578,0.7503472566604614,jumping
1783085179678117600,3.81111767578125,0.254858558166027,3.4489585506141185,-1.6427847424387931,1.1645108461380005,-0.4016987979412079,0.9186651706695556,jumping
1783085179688161300,3.821161376953125,2.219107543578744,4.580744904738665,-5.040099615055323,0.7278162240982056,0.7328371405601501,0.970960021018982,jumping
1783085179698206500,3.83120654296875,3.9596214233636857,3.994797658424079,-2.1490233690053224,0.5926549434661865,-0.5944207906723022,0.8481613993644714,jumping
1783085179708250600,3.841250732421875,3.985648721806705,3.70453607070446,10.463474909353256,0.7894598841667175,-2.270310878753662,1.2775551080703735,jumping
1783085179718294300,3.851294189453125,1.1024062381222843,8.287132740789652,4.985351541301608,0.0441867485642433,-0.7724869251251221,2.470618963241577,jumping
1783085179728339500,3.86133935546875,-1.943342098723352,12.382455597019195,-10.42635192413926,-1.5408631563186646,1.7649788856506348,3.8281188011169434,jumping
1783085179738383600,3.871383544921875,-10.096965655994415,9.470322534415123,-15.041156919389962,-3.402423620223999,3.5762009620666504,4.014660835266113,jumping
1783085179748427300,3.88142724609375,-21.435362282180783,-6.446024397355318,-19.114452652728556,-4.4476447105407715,3.885957717895508,2.388103485107422,jumping
1783085179758472400,3.891472412109375,-21.964429411149023,-19.190227732419967,-20.33844850399494,-3.942785024642944,3.0316967964172363,0.0144897159188985,jumping
1783085179768516600,3.9015166015625,-11.23285535378456,-15.853205123680828,-17.94876169091463,-2.361382007598877,1.578853964805603,-1.5475789308547974,jumping
1783085179778561300,3.911561279296875,-4.21425172573179,-5.921904077139496,-15.066799894690512,-0.4614506363868713,0.8045684695243835,-1.977389931678772,jumping
1783085179788605400,3.92160546875,-2.3863734507486223,1.4039645881429317,-14.37490484099984,1.1278173923492432,0.7172927856445312,-1.664468765258789,jumping
1783085179798649600,3.931649658203125,-1.9031942127302288,4.555841349628567,-13.828971917426584,2.024231195449829,0.8843606114387512,-1.0526442527770996,jumping
1783085179808694300,3.9416943359375,0.1173588437065482,4.9675084260970355,-10.186257219862938,1.9290300607681272,0.3697189688682556,-0.4979173541069031,jumping
1783085179818738400,3.951738525390625,2.338634963496029,2.3595909500241277,-5.764683470904827,0.5454217195510864,0.4934382438659668,-0.4302304685115814,jumping
1783085179828782300,3.9617822265625,3.257169319823384,-1.0349361915700137,-7.930511844238638,-0.5576879978179932,1.5467618703842163,-0.4905085563659668,jumping
1783085179838827300,3.9718271484375,1.40244263927266,-1.1551366153780371,-5.892643495863676,-0.8909213542938232,1.6008774042129517,-0.4251053035259247,jumping
1783085179848871400,3.981871337890625,0.0159396196708083,-2.572516492345929,-1.4307722233086824,-0.6966841816902161,1.262404203414917,-0.6163979172706604,jumping
1783085179860170200,3.993170166015625,-0.7666939818263053,-5.6046489762932055,-2.3426351390480993,-0.6164535284042358,1.5292433500289917,-1.0376986265182495,jumping
1783085179870215400,4.00321533203125,-2.118332901056856,-5.767562825733423,-6.434197765961289,-0.8330921530723572,1.9095410108566284,-1.028801202774048,jumping
1783085179880259600,4.013259521484375,-2.397518821880221,-2.294575310886651,-5.735131797727942,-0.9710103869438172,1.638132929801941,-0.7064945101737976,jumping
1783085179890303500,4.023303466796875,-1.4816919709458949,-0.0923047742098569,-2.951528084403276,-1.0082966089248655,1.6928714513778689,-0.4982714653015136,jumping
1783085179900348400,4.033348388671875,-0.1561325187370181,0.1382822431392967,-4.586041842103004,-0.6913200616836548,1.7083874940872192,-0.2140781134366989,jumping
1783085179910392600,4.043392578125,0.5495707686189562,1.3228371876381335,-2.741556715711951,-0.3487911522388458,1.40103280544281,0.1122385710477829,jumping
1783085179920436500,4.0534365234375,1.4876587703958153,1.2979776178002356,-0.7234545595586299,-0.1809784471988678,1.0273022651672363,0.2598927319049835,jumping
1783085179930481400,4.0634814453125,2.1255448782622812,0.1928741034179925,-0.088962478044629,-0.1824445724487304,0.786461591720581,0.3384140133857727,jumping
1783085179940525600,4.073525634765625,1.3715186548292635,-0.2965196252010763,-0.3173328422576189,-0.236293688416481,0.6264894604682922,0.4214106202125549,jumping
1783085179950569500,4.083569580078125,0.1868663874357938,-0.5693541311711072,-0.6703314566582441,-0.1991204917430877,0.5754271149635315,0.3999545872211456,jumping
1783085179960614400,4.093614501953125,-0.3183167387284338,-1.369193280621618,-0.6984796927779913,-0.0742607712745666,0.5493679046630859,0.2444593906402588,jumping
1783085179970658600,4.103658447265625,-0.589517213755846,-1.8376069111846387,-0.1712432863682508,0.0105035118758678,0.5853933095932007,0.0602158494293689,jumping
1783085179980702500,4.113702392578125,-0.7619168305523694,-1.7108561158850788,0.2673702492147684,-0.0446337759494781,0.6324247121810913,-0.0829338580369949,jumping
1783085179990747400,4.123747314453125,-0.6374867332853377,-1.1141327701427042,1.0911223353028296,-0.1264569908380508,0.6919155120849609,-0.072635643184185,jumping
1783085180000791600,4.13379150390625,-0.5687183540182188,0.113014530891925,2.093769099295139,-0.0971515774726867,0.6453578472137451,0.0415117032825946,jumping
1783085180010835500,4.14383544921875,-0.1792413359174504,0.9111870623044668,3.652753861019015,-0.0477239489555358,0.583957850933075,0.2205729633569717,jumping
1783085180020880400,4.15388037109375,0.2065525001585483,1.4856943384550512,4.254828943052888,0.030238227918744,0.5670398473739624,0.367421805858612,jumping
1783085180030924300,4.16392431640625,0.4100026869202032,1.00682375741601,4.7141427368372675,0.1528262794017791,0.6112784743309021,0.4194993674755096,jumping
1783085180040968400,4.173968505859375,0.4243246057286858,0.2649419991545379,5.213641826015711,0.2150869965553283,0.6327509880065918,0.4536802172660827,jumping
1783085180051013400,4.184013427734375,0.0742326908213086,-0.0803187144704163,5.910961242842674,0.2268275916576385,0.5846228003501892,0.4830438792705536,jumping
1783085180061057300,4.194057373046875,-0.2152317369049415,-0.8818922864980995,7.0384197968959805,0.227760761976242,0.4197552800178528,0.4080165028572082,jumping
1783085180071101400,4.204101318359375,-0.2110030863592401,-1.962924458810687,8.236335450488328,0.1883988231420517,0.1785996854305267,0.2756722569465637,jumping
1783085180081146400,4.214146484375,-0.2791793084194883,-2.220282724837958,8.619938461989165,0.0607239603996276,0.0268972422927618,0.2037770450115203,jumping
1783085180091190300,4.224190185546875,-0.267778720417805,-1.473255858772993,7.957765761867165,-0.1078085005283355,-0.0138607639819383,0.2026879340410232,jumping
1783085180101234400,4.234234375,-0.2383684467392973,-0.6554521596953272,7.103253211334347,-0.2382384091615677,0.0176193974912166,0.2350930124521255,jumping
1783085180111279400,4.244279296875,-0.2503549266038462,0.0735699708625674,6.2904328536272045,-0.2628121972084045,0.0706934705376625,0.3086455762386322,jumping
1783085180121323300,4.2543232421875,-0.1814550299115478,0.901979088976234,5.6369262750416995,-0.2031392455101013,0.1386709213256836,0.4203327000141144,jumping
1783085180131367400,4.264367431640625,-0.2409004859675653,1.6934680509716271,5.019095405471325,-0.1278329938650131,0.259440928697586,0.5812435150146484,jumping
1783085180141412600,4.27441259765625,-0.466650383750163,2.28660930044353,4.530618061044812,-0.1165939271450042,0.3084526658058166,0.7582971453666687,jumping
1783085180151456300,4.284456298828125,-0.7725394199188799,2.1341374961711463,4.795094342383742,-0.0706631913781166,0.1593846380710601,0.8407198190689087,jumping
1783085180161500400,4.29450048828125,-1.0539308879625051,0.7486483297869563,5.262328992295265,-0.0252642817795276,-0.050636775791645,0.7493033409118652,jumping
1783085180171545600,4.304545654296875,-1.5051253073729574,-0.9277347308710217,4.643331417033076,-0.0368024297058582,-0.204676941037178,0.543539822101593,jumping
1783085180181589200,4.31458935546875,-1.8583990854531525,-1.8303421808786688,3.3708681797176596,-0.0541127100586891,-0.3710637986660003,0.2892862260341644,jumping
1783085180191633400,4.32463330078125,-1.7501687200978395,-2.28560275374949,1.8706003953784704,-0.1141398400068283,-0.5164505243301392,-0.0407349243760108,jumping
1783085180201678600,4.3346787109375,-1.0385199683409183,-1.6853889355428515,-0.3962193319678306,-0.222088947892189,-0.5116640329360962,-0.2656314074993133,jumping
1783085180211722500,4.344722412109375,-0.5014580046938732,0.1540327699787914,-3.183650494626164,-0.2628847658634186,-0.3241403698921203,-0.2013588696718216,jumping
1783085180221767400,4.354767333984375,-0.1138732483468018,1.4766300113812088,-5.131439343625307,-0.3035104870796203,-0.2685676515102386,0.0027487217448651,jumping
1783085180231811600,4.3648115234375,0.0455052300415001,1.2960147932946682,-5.3787242516666645,-0.2991493046283722,-0.4980058670043945,0.1222407668828964,jumping
1783085180241856300,4.374856201171875,-0.3641312356485053,-0.0088201430544257,-5.559321057313681,-0.2211037874221801,-0.7177387475967407,0.0925321355462074,jumping
1783085180251900400,4.384900390625,-1.409870743446797,-1.3199451194584368,-7.302472299864887,-0.1737769842147827,-0.7804317474365234,0.0227360520511865,jumping
1783085180261945600,4.394945556640625,-2.457131579060853,-1.82334180059731,-9.883701675498484,-0.2144237458705902,-0.6523992419242859,-0.0080255884677171,jumping
1783085180271989200,4.4049892578125,-2.7427359886243936,-1.8356947939530013,-12.302840208512544,-0.2943503260612488,-0.4584780931472778,0.0313053913414478,jumping
1783085180282033400,4.415033447265625,-2.9366727528378367,-1.258818304453045,-15.425193646132945,-0.2852297723293304,-0.2237923443317413,0.0917551591992378,jumping
1783085180292078600,4.42507861328125,-2.133549905541539,-0.3329064050950109,-18.91093148308992,-0.1227778419852256,0.2808797359466553,0.1731738597154617,jumping
1783085180302122200,4.435122314453125,-0.7232542146809399,0.9055740447282792,-21.032145054149627,0.0795962959527969,0.697361946105957,0.1063980236649513,jumping
1783085180312166400,4.44516650390625,0.418333146761544,0.489811077248305,-20.309266833174227,0.1909930855035781,1.03409743309021,-0.1470658481121063,jumping
1783085180322211600,4.455211669921875,0.4422171495655551,-0.0489377800397574,-21.42940249699354,0.0441743396222591,1.783002853393555,-0.3740252256393432,jumping
1783085180332255500,4.46525537109375,0.5859585348935797,0.7462798470899462,-21.90089655791521,-0.1831870228052139,2.6017444133758545,-0.3617831468582153,jumping
1783085180342299400,4.47529931640625,1.0125251839280127,1.1545201639801264,-21.70681658583879,-0.4045588076114654,3.3552496433258057,-0.3418126702308655,jumping
1783085180352344600,4.485344482421875,2.0168577090501785,1.40882094213292,-19.361831668794153,-0.2111718505620956,3.389369487762451,-0.339891105890274,jumping
1783085180362388500,4.495388427734375,2.9144547835499046,2.999495119714737,-14.190788629055024,0.3245965242385864,3.049632787704468,-0.2878220379352569,jumping
1783085180372432400,4.505432373046875,3.1227184715405105,4.198423749741911,-10.962139885795116,0.8520603179931641,2.7819664478302,-0.2388640791177749,jumping
1783085180382477600,4.5154775390625,3.0440578995406624,4.6383623964488505,-7.08207949040234,1.1117662191390991,2.3891842365264893,-0.1434142589569091,jumping
1783085180392521500,4.525521484375,3.0389906792789696,5.34962032225728,-2.6092057623177767,1.2015507221221924,1.9372401237487793,0.0240242667496204,jumping
1783085180402565400,4.5355654296875,3.2281635900914667,5.548028678926825,1.5026877049624918,1.2130142450332642,1.2652266025543213,0.1535063683986663,jumping
1783085180412610600,4.545610595703125,3.053760670648515,5.389973959955573,5.251307247543335,1.2043616771697998,0.514808177947998,0.293913871049881,jumping
1783085180422654500,4.555654541015625,2.3185123590521513,4.939709149545431,7.456127907094359,1.3152165412902832,-0.199211373925209,0.4227360188961029,jumping
1783085180432698400,4.565698486328125,0.8271295996971428,4.5544718148410315,8.65355373134315,1.4550741910934448,-0.4367867708206177,0.5094542503356934,jumping
1783085180442743600,4.57574365234375,-0.6273632525473832,5.360917961341142,9.864262815535067,1.4364168643951416,-0.5676636099815369,0.7067353129386902,jumping
1783085180452787500,4.585787353515625,-3.1728891543760893,5.092502002465725,12.680060240978,1.4669028520584106,-0.8840004205703735,0.8231231570243835,jumping
1783085180462831600,4.59583154296875,-6.050929685503244,3.622148879396915,16.022406675088405,1.4756029844284058,-1.3148263692855835,0.6909933090209961,jumping
1783085180472876500,4.60587646484375,-8.411806583684683,1.9467175665058192,18.497438360238075,1.3422954082489014,-1.7009154558181765,0.3519610464572906,jumping
1783085180482920400,4.61592041015625,-9.59610930698812,1.0149977845866232,19.991586200392245,0.96073979139328,-1.9976400136947632,-0.0712080746889114,jumping
1783085180492964600,4.625964599609375,-8.719609381052852,0.7736179358705878,20.617667596435545,0.3799266219139099,-2.267470359802246,-0.4645169377326965,jumping
1783085180503009300,4.63600927734375,-6.7951803648531435,1.1442261489808558,19.837029260408876,-0.3116859197616577,-2.210958957672119,-0.6905468106269836,jumping
1783085180513053400,4.646053466796875,-4.954755912029743,1.5236967368520795,17.131602427220344,-1.009472370147705,-1.7310383319854736,-0.7623562812805176,jumping
1783085180523097600,4.65609765625,-3.3149329420059916,0.6065854721304029,14.399717795217036,-1.557630181312561,-1.2019386291503906,-0.8431893587112427,jumping
1783085180533142300,4.666142333984375,-1.9731069762594995,-0.4996021476941183,12.550102320200205,-1.9589850902557373,-0.7861822843551636,-0.9482465386390686,jumping
1783085180543186400,4.6761865234375,-0.8512239573162048,-1.20578697148934,10.036189407992362,-2.131256103515625,-0.4374264776706695,-0.977664351463318,jumping
1783085180553230600,4.686230712890625,0.1652688516011461,-1.7288316252976654,7.533771703267097,-2.008262634277344,-0.0450052544474601,-1.0001451969146729,jumping
1783085180563275300,4.696275146484375,1.3926716252341866,-2.0260824873827397,6.516055964958667,-1.5672613382339478,-0.0447754226624965,-0.9247511029243468,jumping
1783085180573319400,4.7063193359375,2.776158365754783,-1.1061128375552594,7.58893186495304,-0.927830696105957,-0.3220714628696441,-0.740745484828949,jumping
1783085180583363600,4.716363525390625,3.074456252674758,-1.6900848382741211,6.95147508841455,-0.5559421181678772,-0.4930458664894104,-0.5956020951271057,jumping
1783085180593408300,4.726408203125,2.533306471724808,-2.7931553855240345,5.198204018387198,-0.4754137098789215,-0.3259384036064148,-0.544217050075531,jumping
1783085180603452400,4.736452392578125,1.9406299171552064,-3.8973815325498578,3.4868776546418663,-0.4299756586551666,-0.016968572512269,-0.631941556930542,jumping
1783085180613496600,4.74649658203125,1.2685771896623077,-4.935158062112331,2.7834599209398028,-0.3244616389274597,0.2978911399841308,-0.8034917712211609,jumping
1783085180623541200,4.756541259765625,0.5214367802202702,-5.375043517327308,3.333630628213286,-0.0271154567599296,0.1908957213163375,-0.9653765559196472,jumping
1783085180633585400,4.76658544921875,0.1926249326962046,-4.2703006529510015,6.143544840836524,0.3904736042022705,-0.1718205362558365,-0.9854773879051208,jumping
1783085180643629600,4.776629638671875,0.1661917933986522,-2.300179999025911,6.920992271867394,0.5994496941566467,-0.3569656312465668,-0.8384724855422974,jumping
1783085180653674200,4.78667431640625,0.3276314968993887,-0.711627489773184,7.27604197357893,0.5576469898223877,-0.387113481760025,-0.5882289409637451,jumping
1783085180663718400,4.796718505859375,0.550455515564233,0.2795022932961583,7.879266810169815,0.4337668716907501,-0.2918942868709564,-0.3263888359069824,jumping
1783085180673762300,4.80676220703125,0.6915536198418587,0.6432748151674866,8.763742537289858,0.3707883954048157,-0.2231958210468292,-0.0848056599497795,jumping
1783085180683807500,4.816807373046875,0.673250266714394,0.4627743095017969,9.715866151747107,0.3464143574237823,-0.1668872684240341,0.1147058457136154,jumping
1783085180693851400,4.826851318359375,0.7501948285765946,-0.3256732389710843,10.741134497392176,0.2802578210830688,-0.2804126739501953,0.1953257173299789,jumping
1783085180703895300,4.836895263671875,0.4612357382902875,-1.2568557722084224,12.602135289776324,0.2968461215496063,-0.7848995327949524,0.2142996788024902,jumping
1783085180713940500,4.8469404296875,-0.0869956075516063,-1.837922406874597,13.731055148553848,0.3374313712120056,-1.2923592329025269,0.1830468773841858,jumping
1783085180723984400,4.856984375,-0.2451659248596988,-2.118392960681021,12.406549589312077,0.1999139785766601,-1.536360263824463,0.0760892704129219,jumping
1783085180734028300,4.8670283203125,-0.1566109499037265,-1.773567569733411,10.66750110590458,-0.056906621903181,-1.7192543745040894,-0.0914012938737869,jumping
1783085180744073500,4.877073486328125,0.4896597956767305,-1.0099946425370872,8.646831729611755,-0.3045569062232971,-1.838366985321045,-0.1875512599945068,jumping
1783085180754117400,4.887117431640625,1.080662900608778,1.655610760133713,5.689741919428109,-0.4782235026359558,-1.9143600463867188,-0.0602871477603912,jumping
1783085180764161300,4.897161376953125,1.8078820733979344,5.196218397527933,2.0381804830640555,-0.5500452518463135,-1.8593881130218504,0.2668978869915008,jumping
1783085180774206500,4.90720654296875,1.808815700986236,7.613760016739368,-2.2618466151088477,-0.4521897733211517,-1.5425350666046145,0.8123335242271423,jumping
1783085180784250600,4.917250732421875,0.5853172778479755,8.981363543951511,-4.618136770021915,-0.2616853415966034,-1.3870224952697754,1.5237435102462769,jumping
1783085180794294300,4.927294189453125,-1.065069610157609,8.265068208497762,-6.95610041012764,-0.3314723372459411,-0.5926634669303894,2.2146637439727783,jumping
1783085180804339500,4.93733935546875,-4.4175753269717095,8.13403944361806,-14.95398833902478,-1.6879222393035889,1.7260411977767944,3.2090203762054443,jumping
1783085180814383600,4.947383544921875,-8.999535744979976,6.761888920626044,-21.97550025573969,-3.125317335128784,2.683410167694092,3.4320597648620605,jumping
1783085180824428300,4.95742822265625,-9.529949027860164,-5.476580230262876,-17.649226955676077,-3.080991744995117,1.522616982460022,2.2134408950805664,jumping
1783085180834472400,4.967472412109375,-4.813332302124798,-11.817560783344506,-17.088011122775075,-2.036348581314087,0.8347175121307373,0.5544480681419373,jumping
1783085180844516600,4.9775166015625,-2.8426430545315147,-9.078491208273173,-24.91532036669254,-0.8368908762931824,0.9889398217201232,-0.6888417601585388,jumping
1783085180854561300,4.987561279296875,-0.419000634226948,-4.334621733953059,-23.03174300084114,0.3141162097454071,0.3332962095737457,-1.4143342971801758,jumping
1783085180864605400,4.99760546875,2.639800222545862,0.9130687843978404,-17.933891454041003,0.7422134876251221,-0.0690624117851257,-1.457980036735535,jumping
1783085180874649600,5.007649658203125,2.356315289354324,5.0494648247718805,-20.64395705294609,0.2929610908031463,0.6802363991737366,-0.9121958613395692,jumping
1783085180884694300,5.0176943359375,2.9183713724717495,5.482403821849823,-18.19600743598938,0.1447729468345642,0.6647599339485168,-0.4870728254318237,jumping
1783085180894738400,5.027738525390625,3.7399119199901816,3.0344565429806707,-9.319915699848533,0.5340549349784851,-0.162036508321762,-0.2218565940856933,jumping
1783085180904782600,5.037782470703125,2.72400995310545,1.0252909958682954,-6.21600801950097,0.7429966926574707,-0.628838300704956,-0.0629210174083709,jumping
1783085180914827300,5.0478271484375,1.6443237885743378,-0.348012788812071,-6.517815375846624,0.5310144424438477,-0.7500680088996887,-0.0021837768144905,jumping
1783085180924871400,5.057871337890625,0.2130296237507835,-1.548286842098832,-5.660812177541851,0.2117696553468704,-0.5903345346450806,-0.0545159578323364,jumping
1783085180934915600,5.06791552734375,-0.8360287993371486,-2.119898396807909,-5.963434357401728,-0.0595356076955795,-0.0658287033438682,-0.2789091765880584,jumping
1783085180944960300,5.077960205078125,-0.8191955918274819,-1.97438386432752,-5.274920178321004,-0.2016248404979705,0.3006379604339599,-0.560437023639679,jumping
1783085180955004400,5.08800439453125,-0.2484027330901473,-1.3113650687702,-3.114216308394074,-0.2397514581680297,0.4894981980323791,-0.7949700355529785,jumping
1783085180965048600,5.098048583984375,0.1383248767046258,-0.2228504317477345,-1.8405325893729925,-0.2994643151760101,0.6612507700920105,-0.8894312977790833,jumping
1783085180975093200,5.10809326171875,0.1548926016785204,0.3524916877917945,-0.5778063176959752,-0.3919733464717865,0.7673345804214478,-0.8605458736419678,jumping
1783085180985137400,5.118137451171875,0.0730806164430454,0.8656240193948149,0.568634584724903,-0.4739680588245392,0.8010760545730591,-0.7464680671691895,jumping
1783085180995181300,5.128181396484375,0.8311806286536156,1.9745999912962315,2.644742939645052,-0.5565799474716187,0.4269047677516937,-0.5213116407394409,jumping
1783085181005226500,5.1382265625,0.7959424342729151,2.103415756301582,5.283650012743473,-0.5390670299530029,-0.2969669103622436,-0.2807536423206329,jumping
1783085181015270400,5.1482705078125,0.3011296032145619,0.862362094989419,5.782135540965199,-0.3934621214866638,-0.9068074226379396,-0.1760682016611099,jumping
1783085181025314300,5.158314208984375,-0.6028658305527642,-0.3722974813714623,4.384962804919481,-0.1625998765230178,-1.171519756317139,-0.1899395436048507,jumping
1783085181035359500,5.168359375,-1.3742227992214262,-1.1187582379862666,3.0829169147670266,0.0787104740738868,-1.1149911880493164,-0.2790932655334472,jumping
1783085181045403400,5.1784033203125,-1.620921577937901,-1.2885004721418023,2.8409032251268624,0.249121606349945,-0.9398529529571532,-0.3848708271980285,jumping
1783085181055447300,5.188447265625,-1.4327533141233026,-1.322939917360246,3.273686154860258,0.3555967807769775,-0.6750040054321289,-0.4764511585235595,jumping
1783085181065492500,5.198492431640625,-1.040973206711933,-1.0225509033799172,3.9846722779899832,0.4233995378017425,-0.3778617978096008,-0.491631418466568,jumping
1783085181075536400,5.208536376953125,-0.4474943958487361,-0.6032277592003346,5.0197570842504495,0.4392234086990356,-0.11282379925251,-0.4456256926059723,jumping
1783085181085580300,5.218580322265625,0.3061406363096088,-0.2396172960229217,6.270359202891588,0.3659603893756866,0.0574145168066024,-0.3405703902244568,jumping
1783085181095625500,5.22862548828125,0.8106069925066083,0.0541204433746635,6.993500458717346,0.2771264910697937,0.1791375428438186,-0.1560747921466827,jumping
1783085181105669400,5.23866943359375,1.306222299054265,-0.3134957483127713,7.254847794380783,0.301382303237915,0.1956203728914261,0.0105789052322506,jumping
1783085181115713300,5.24871337890625,2.111850699430704,-1.055008088739961,7.542202847003936,0.4044559597969055,0.0645952075719833,0.1300050020217895,jumping
1783085181125758500,5.258758544921875,2.6165093633294103,-1.754115265766531,7.777984948778152,0.4853052794933319,-0.1653085500001907,0.2425866723060608,jumping
1783085181135802600,5.268802734375,2.5578847404032943,-2.4653017337739467,7.934547967886925,0.4805597960948944,-0.5049363970756531,0.3045661747455597,jumping
1783085181145846300,5.27884619140625,1.9484470206469295,-3.275067672346532,7.173344400170445,0.4344921410083771,-0.670435905456543,0.3215283751487732,jumping
1783085181155891500,5.288891357421875,1.145480752151832,-3.736125679449737,5.38913984721899,0.3531069457530975,-0.6474012732505798,0.3181198239326477,jumping
1783085181165935600,5.298935546875,0.3537999208461493,-3.725502286365628,3.6877626305580136,0.3899246156215668,-0.5100407600402832,0.3159442842006683,jumping
1783085181175979300,5.308979248046875,-0.5971808071862906,-3.3699767838358876,2.017084503543377,0.6065974235534668,-0.2347071915864944,0.3591786026954651,jumping
1783085181186024400,5.3190244140625,-1.3182225334495306,-2.654216285911202,0.7322936995744704,0.905619502067566,0.0500550232827663,0.3949059844017029,jumping
1783085181196068600,5.329068603515625,-1.3860980920627712,-2.1457785418652,0.8051619519084692,1.189750909805298,0.1697663813829422,0.3935944736003876,jumping
1783085181206112500,5.339112548828125,-1.0235390376344322,-1.9588024104446171,1.4695353769451378,1.376840114593506,0.1844105720520019,0.3632653355598449,jumping
1783085181216157400,5.349157470703125,-0.6500047810096293,-1.6162221680752933,2.322689498606324,1.434281826019287,0.0890256166458129,0.3312703371047973,jumping
1783085181226201600,5.35920166015625,-0.1453300427589565,-1.1354083440139888,3.2745150068998337,1.4265586137771606,-0.1015043780207634,0.3180658519268036,jumping
1783085181236245500,5.36924560546875,0.3921029096249491,-0.9832216402933,3.603896598869562,1.3714088201522827,-0.3783350884914398,0.2984765768051147,jumping
1783085181246290400,5.37929052734375,0.8776540644064545,-1.0949771841000764,3.1462709043025967,1.220775127410889,-0.7020567059516907,0.2972775995731354,jumping
1783085181256334600,5.38933447265625,1.073351993073523,-1.0545790496729317,1.327836164969206,0.9790993332862854,-0.9576611518859864,0.3215338289737701,jumping
1783085181266378500,5.39937841796875,0.930816184142977,-0.515677778302133,-1.8148551272809503,0.6938111186027527,-1.087388038635254,0.3750194311141968,jumping
1783085181276423400,5.40942333984375,0.3617423312179744,0.6632528235089034,-5.042234873518347,0.4925386011600494,-1.1343560218811035,0.4150440096855163,jumping
1783085181286467600,5.419467529296875,-0.3466695575095713,1.5641396602690218,-8.623125275331734,0.4043091237545013,-0.7575674057006836,0.4396470785140991,jumping
1783085181296511500,5.429511474609375,-0.7503023806042969,2.033966080239415,-11.669612447845935,0.4431528449058532,-0.1540268063545227,0.4388718903064728,jumping
1783085181306556400,5.439556396484375,-0.941420580265671,2.107241159808636,-11.969900047278404,0.5393363833427429,0.2280465215444564,0.4078178405761719,jumping
1783085181316600300,5.449600341796875,-1.4050184811100364,1.4933815319567918,-10.335486827343702,0.5091273188591003,0.3120205104351043,0.3618747889995575,jumping
1783085181326644500,5.45964453125,-2.1435420149847864,0.3675178458794951,-9.377916053396463,0.3134111166000366,0.3513828217983246,0.2951615452766418,jumping
1783085181336689400,5.469689453125,-3.5107203025221825,-0.9866899739909916,-9.820793091642855,-0.0042962254956364,0.5009554624557495,0.183782696723938,jumping
1783085181346733300,5.4797333984375,-5.671999926510453,-2.6919378215402365,-11.775104620409012,-0.4344167113304138,0.8606414198875427,-0.0128589970991015,jumping
1783085181356777500,5.489777587890625,-7.23018038611412,-4.581248178085684,-14.766564902228115,-0.9270704388618468,1.1282522678375244,-0.4059899747371673,jumping
1783085181366822400,5.499822509765625,-6.734041128757595,-4.5457589315533635,-17.555441587519645,-1.1844862699508667,1.0637238025665283,-0.7911314964294434,jumping
1783085181376866300,5.5098662109375,-4.655257417148351,-2.0935924275539812,-19.512993705642224,-0.9504486322402954,0.7487614750862122,-1.0253726243972778,jumping
1783085181386910500,5.519910400390625,-2.15701933619529,0.7202703765645623,-20.833578292047974,-0.2497462034225464,0.5543155670166016,-1.0809578895568848,jumping
1783085181396955100,5.529955078125,0.0641996465794742,2.8701316576987503,-19.973594616627693,0.5471281409263611,0.38661989569664,-1.0177292823791504,jumping
1783085181406999300,5.539999267578125,1.631297133740783,3.5504368113607168,-16.730625087070464,1.1292749643325806,0.1880479753017425,-0.9028275012969972,jumping
1783085181417043200,5.550043212890625,2.4509303863331673,3.3372923655912277,-12.630952218937871,1.4146960973739624,-0.0137126930058002,-0.7914719581604004,jumping
1783085181427088400,5.56008837890625,2.824382006175816,3.052632251140475,-8.899310699164866,1.4763898849487305,-0.1403406709432602,-0.6890252232551575,jumping
1783085181437132300,5.57013232421875,2.9901120820805427,3.0400691221654412,-4.850686465746164,1.504777193069458,-0.3423189222812652,-0.6071166396141052,jumping
1783085181447176200,5.58017626953125,2.6542931505396963,2.3439649263471365,-2.054568138763309,1.4527637958526611,-0.1226435601711273,-0.7149261832237244,jumping
1783085181457221400,5.590221435546875,1.9576918188542127,1.763469515697658,-1.9162141455620527,1.1965254545211792,0.4896411001682281,-0.8976178169250488,jumping
1783085181467265300,5.600265380859375,2.1225734612360596,2.8085470159232613,-0.4218985476255417,0.9528741240501404,1.1843656301498413,-1.068663477897644,jumping
1783085181477309200,5.61030908203125,2.2625611931189895,4.058517266401648,2.9183471148133275,0.9851657152175904,1.6298238039016724,-1.1929304599761963,jumping
1783085181487354400,5.620354248046875,1.839663989844918,4.648628062136471,5.910302486672997,0.9048902988433838,2.28283429145813,-1.1682682037353516,jumping
1783085181497398300,5.630398193359375,1.809514935296774,6.9907046905189745,7.907189420840144,0.5776427984237671,2.9272758960723877,-0.8475208878517151,jumping
1783085181507442200,5.640442138671875,2.0823954723656177,8.744056424567104,11.575820065426823,0.2382045835256576,3.0706136226654053,-0.3469291925430298,jumping
1783085181517487400,5.6504873046875,1.7171026090592143,7.666637620446085,15.332619407331942,0.0490421429276466,2.7364532947540283,-0.0056919190101325,jumping
1783085181527531300,5.66053125,1.665926986964792,6.393454836684465,17.717293360686302,0.0481217540800571,2.046436548233032,0.255821168422699,jumping
1783085181537575200,5.6705751953125,1.1004672328837215,6.352717752626538,19.654817420780656,0.1445559710264206,1.0646488666534424,0.6468692421913147,jumping
1783085181547620400,5.680620361328125,-0.6970485639963299,5.20612604355812,20.871289306282996,0.3748805224895477,-0.2553407847881317,1.137293815612793,jumping
1783085181557664500,5.69066455078125,-5.129968686550855,1.6284079881705342,23.228086241674426,0.3520921468734741,-1.5561020374298096,1.2647086381912231,jumping
1783085181567708200,5.700708251953125,-9.964780706816912,-4.295268797729909,16.832168229746816,-0.4383295178413391,-1.0531980991363523,0.7303235530853271,jumping
1783085181577753300,5.71075341796875,-14.321183772206306,-7.785880085942149,9.469207851171491,-1.217511534690857,-0.1778233647346496,-0.1351096034049987,jumping
1783085181587797500,5.720797607421875,-13.003389693301916,-6.675055855825543,7.877892014685273,-1.4181537628173828,0.3197517991065979,-0.8950338363647461,jumping
1783085181597841200,5.730841064453125,-7.533577057477832,-3.058559303101897,7.467886149427295,-1.129451870918274,0.4346404373645782,-1.2672752141952517,jumping
1783085181607886300,5.74088623046875,-2.457799395319819,0.658173693613708,7.573047482600808,-0.7199681997299194,0.3290908336639404,-1.235716462135315,jumping
1783085181617930500,5.750930419921875,0.3973525737814605,2.7851693552061914,8.153986253103614,-0.2806466221809387,0.1230212897062301,-0.8980838060379028,jumping
1783085181627974100,5.76097412109375,1.8837503843307497,4.278428137566149,8.999311288574338,0.0421710908412933,-0.0794170349836349,-0.3075248599052429,jumping
1783085181638019300,5.771019287109375,2.8042832209989426,4.581226550775766,9.043325786867737,0.0861523821949958,-0.1017641276121139,0.1924610584974289,jumping
1783085181648063500,5.7810634765625,2.9961709437280892,2.724920638209581,8.947902588376403,0.0237055178731679,0.0084646418690681,0.492723137140274,jumping
1783085181658108200,5.791108154296875,2.3678194107957182,0.8301838727012276,9.1624548551172,-0.013640402816236,0.1355826705694198,0.6347066760063171,jumping
1783085181668152300,5.80115234375,1.3326649002999067,-1.0753755347903815,9.129339351978896,-0.0177661720663309,0.277813047170639,0.5847648978233337,jumping
1783085181678196200,5.8111962890625,0.5974762464689091,-2.7809017608895896,8.465139529943466,-0.0634055957198143,0.4436452090740204,0.3756113648414612,jumping
1783085181688240400,5.821240478515625,0.0513392882235348,-3.648242813335359,7.28835083553195,-0.1312940865755081,0.7810083627700806,0.1053279638290405,jumping
1783085181698285300,5.831285400390625,0.1152523729465901,-3.798388074356317,6.214944774183631,-0.27078577876091,1.213408350944519,-0.207049161195755,jumping
1783085181708329200,5.8413291015625,0.4109253181904554,-3.1787542470172045,6.333740080434084,-0.3879803121089935,1.5507909059524536,-0.4385284781455993,jumping
1783085181718373400,5.851373291015625,0.359996875790134,-1.9777914808139203,6.530813389107585,-0.3403573036193847,1.9204508066177368,-0.5040526390075684,jumping
1783085181728418300,5.861418212890625,0.3287492123503238,-0.3069084423443302,7.376728207165002,-0.2684687376022339,1.9882365465164185,-0.3776228129863739,jumping
1783085181738462200,5.871462158203125,0.985314228658378,1.0487198022507132,10.134410128247737,-0.2381281405687332,1.3969072103500366,-0.1116363406181335,jumping
1783085181748507100,5.881507080078125,1.895598204643279,1.7764252972520886,13.01246381111741,-0.1794467121362686,0.1751360148191452,0.1456101089715957,jumping
1783085181758551300,5.89155126953125,2.353373098422587,1.9765761136747897,13.885242670702931,0.0108510674908757,-1.061994552612305,0.3572397530078888,jumping
1783085181768595200,5.90159521484375,1.5855923442728816,2.1310599884219465,11.422226417517662,0.1703983843326568,-1.9421963691711424,0.6114278435707092,jumping
1783085181778640400,5.911640380859375,-0.2935545648504048,2.0500950850024817,8.91907279973328,0.1081795394420623,-2.4599783420562744,0.8489353060722351,jumping
1783085181788684300,5.921684326171875,-1.8500633649148048,0.4462832299606874,5.490705786249041,-0.1821590811014175,-2.580695390701294,0.8565109372138977,jumping
1783085181798728200,5.931728271484375,-2.8774641925439237,-1.0889364426311106,1.6591291435182094,-0.4644694328308105,-2.372086763381958,0.6529256701469421,jumping
1783085181808773400,5.9417734375,-3.6757375539824366,-0.7847250938836484,-0.4207908786445856,-0.5676208138465881,-2.531188726425171,0.7338516712188721,jumping
1783085181818817300,5.9518173828125,-3.1208965168103573,0.8770141590677202,-1.1299071162492036,-0.8739334940910339,-2.155663013458252,0.5869302749633789,jumping
1783085181828861200,5.961861083984375,-2.6209388702094554,0.1651356902081519,-8.587858731639384,-1.9733295440673828,-0.6257012486457825,0.6233484745025635,jumping
1783085181838906400,5.97190625,-6.853304052519798,2.882191513326764,-18.725642720234394,-3.972902774810791,2.2795071601867676,0.6058156490325928,jumping
1783085181848950300,5.9819501953125,-8.092945216685534,2.050451351094246,-26.69966228228807,-4.800875186920166,2.495150327682495,-0.0881591439247131,jumping
1783085181858994200,5.991994140625,-2.4651585259109736,-0.2318937160335481,-15.0619717438817,-2.5508530139923096,-0.0496990010142326,-0.7290880680084229,jumping
1783085181869039400,6.002039306640625,1.2177202050630005,2.1522832475841045,-14.834344891512393,0.3122557997703552,-0.4210318028926849,-1.170278549194336,jumping
1783085181879083500,6.01208349609375,2.7902272231176495,4.267527096584439,-19.04163525379896,1.5931438207626345,-0.9913936853408812,-1.192150592803955,jumping
1783085181889127200,6.022127197265625,3.0123566471144554,3.8614360666826366,-10.707395893919466,1.3626528978347778,-1.6275466680526731,-0.9198322892189026,jumping
1783085181899172400,6.03217236328125,2.9076641004964707,2.3524469234883782,-11.390282296246289,-0.048551321029663,-0.8294396996498108,-0.7154340147972107,jumping
1783085181909216500,6.042216552734375,0.6270754485819489,-0.0278334710821509,-19.132787935364245,-1.6408348083496094,1.005494236946106,-0.7101577520370483,jumping
1783085181919260200,6.05226025390625,-1.0877020785305649,-2.0991874710820615,-18.666498457348347,-1.8178730010986328,1.4051575660705566,-1.0638521909713743,jumping
1783085181929305300,6.062305419921875,1.061483714494854,-2.9959213528811928,-13.81079796283245,-1.2485493421554563,1.1722955703735352,-1.4970380067825315,jumping
1783085181939349500,6.072349609375,2.9445135294660925,-1.966739194793254,-13.689731789040565,-0.5771827101707458,1.0740342140197754,-1.635481357574463,jumping
1783085181949393200,6.08239306640625,3.96627941994816,0.4616550962135195,-12.326958750724792,-0.0570652075111866,1.019364595413208,-1.443651795387268,jumping
1783085181959438300,6.092438232421875,4.294304921133816,1.4811692622460424,-9.668328740024569,0.0781249329447746,1.1497055292129517,-1.194657325744629,jumping
1783085181969482500,6.102482421875,4.589522669956088,0.870330151259154,-7.322344290548562,0.1417787373065948,1.0910425186157229,-1.0070964097976685,jumping
1783085181979526400,6.1125263671875,4.940804543566704,0.5851720241583883,-4.398300425398349,0.2094053775072097,0.8968858122825623,-0.7672721147537231,jumping
1783085181989571300,6.1225712890625,4.379260209363698,0.4034109970375895,-2.383006312403083,0.1886926442384719,0.5942481756210327,-0.4720173180103302,jumping
1783085181999615200,6.132615234375,3.586955985462666,-0.1234159517884254,-1.5267039558440445,0.0720850229263305,0.3436397314071655,-0.2473660409450531,jumping
1783085182009659400,6.142659423828125,2.644766320520639,-0.610555471739918,-0.7688175498515367,0.048434555530548,0.0451262779533863,-0.0891354158520698,jumping
1783085182019704300,6.152704345703125,1.3852369451887905,-0.7375678405851125,-0.1903080523222684,0.1283092051744461,-0.1522715985774994,-0.0246683564037084,jumping
1783085182029748200,6.162748291015625,0.0800166262513026,-1.2068597152873872,-0.3482832763165235,0.262820690870285,-0.2520799338817596,-0.0511830523610115,jumping
1783085182039792400,6.17279248046875,-0.8384564648754894,-1.865012512243539,0.6349094301432371,0.3622444868087768,-0.3717533946037292,-0.2279745638370514,jumping
1783085182049837300,6.18283740234375,-1.1377779957547782,-2.6295102991998194,1.449879659360647,0.369548499584198,-0.3615234196186065,-0.5228221416473389,jumping
1783085182059881200,6.192881103515625,-1.2496714136622846,-1.952327076950669,1.4532283852666616,0.3605602383613586,-0.1195966526865959,-0.6239581108093262,jumping
1783085182069925400,6.20292529296875,-1.349686469988525,0.6047884326457977,1.4038742795109749,0.3910686075687408,0.3945798575878143,-0.4604967534542084,jumping
1783085182079970300,6.21297021484375,-1.1783819549523291,2.5073019696354866,2.039534820282459,0.4409024715423584,0.9012094736099244,-0.1499627828598022,jumping
1783085182090014200,6.22301416015625,-0.938917365273088,3.007889438572526,4.539015302512049,0.5406794548034668,1.2006125450134275,0.1361094564199447,jumping
1783085182100058400,6.233058349609375,-0.9563548222862184,2.4793846196621656,7.226535892131924,0.6177768707275391,1.3150546550750732,0.3357141017913818,jumping
1783085182110103300,6.243103271484375,-1.291496877478808,1.628575307561457,9.900264687764643,0.6636977791786194,1.0807050466537476,0.4641306400299072,jumping
1783085182120147200,6.253147216796875,-1.4667705884069204,0.4525083515532314,13.311522745537758,0.6365048885345459,0.2837681472301483,0.4335417449474334,jumping
1783085182130191400,6.26319140625,-1.276656305091083,-0.9289106427825988,15.53143400671482,0.506636381149292,-0.7192270755767822,0.2681415975093841,jumping
1783085182140236300,6.273236328125,-1.1910231906648725,-1.496503901761025,14.343075286018848,0.2762551605701446,-1.32470965385437,0.1582966744899749,jumping
1783085182150280200,6.2832802734375,-1.496342719849944,-1.0150700461052358,11.655780321848392,0.019139451906085,-1.5995742082595823,0.1291699409484863,jumping
1783085182160324400,6.293324462890625,-1.3897227123007176,-0.5381123129501939,9.43319779563546,-0.1535316705703735,-1.6526912450790403,0.1575346291065216,jumping
1783085182170369300,6.303369384765625,-1.169370673239976,-0.1580604180596768,7.1265610216856,-0.1968234926462173,-1.4818906784057615,0.2688859403133392,jumping
1783085182180413200,6.3134130859375,-1.555928735154122,0.6880809022299945,5.141956645986437,-0.2802203595638275,-1.084280490875244,0.5513834953308105,jumping
1783085182190457300,6.323457275390625,-2.1166044698290527,1.3202978784188628,3.21416955153048,-0.4227974712848663,-0.6060559153556824,0.8294103145599365,jumping
1783085182200502300,6.333502197265625,-2.3737452937133607,0.1993077897273004,3.4593291379809377,-0.4263642132282257,-0.570880115032196,0.9228765964508056,jumping
1783085182210546200,6.343546142578125,-2.249151530317217,-0.8724826531179248,4.355174984899163,-0.2896311283111572,-0.7877714037895203,0.9314775466918944,jumping
1783085182220590300,6.35359033203125,-1.814591946300119,-1.1017059808984395,4.312708885091543,-0.0351601429283618,-1.0950706005096436,0.8920783996582031,jumping
1783085182230635500,6.363635498046875,-1.3998862327881156,-1.6996838567465542,3.821973532605171,0.1805942505598068,-1.2541228532791138,0.7583935856819153,jumping
1783085182240679200,6.37367919921875,-1.1429846975523978,-2.3325997749850154,2.3965000002264976,0.2490366846323013,-1.1974924802780151,0.6495637893676758,jumping
1783085182250723300,6.383723388671875,-0.7162475507892668,-2.0807579342916607,1.519741131094098,0.3056094050407409,-1.1266183853149414,0.5991469621658325,jumping
1783085182260768500,6.3937685546875,-0.3321971243144944,-1.8132506146937608,1.4781746104747056,0.3351506292819977,-1.1076483726501465,0.6095902919769287,jumping
1783085182270812200,6.403812255859375,-0.1634412343151867,-2.1704374745644626,1.1676865195453163,0.3195418417453766,-1.0378042459487915,0.5669528245925903,jumping
1783085182280856300,6.413856201171875,-0.1348123750716447,-2.8527310255646703,0.4663327326357364,0.2678486406803131,-0.8834683895111084,0.5015214681625366,jumping
1783085182290901500,6.423901611328125,-0.4569822090316564,-2.842238857644796,0.1290226857542991,0.1885916441679,-0.8302640318870544,0.4876996278762817,jumping
1783085182300945400,6.4339453125,-0.8082317147426307,-3.044351914051175,-0.24838147110641,-0.0158209670335054,-0.8324096202850342,0.4558437168598175,jumping
1783085182310989300,6.4439892578125,-0.8193561161514371,-2.6994758158296346,-2.097550371399522,-0.2125481367111206,-0.7737953066825867,0.4639754295349121,jumping
1783085182321034200,6.4540341796875,-0.299189867323637,-2.163032459004968,-4.0082513064980505,-0.288343608379364,-0.8236660957336426,0.402364432811737,jumping
1783085182331078400,6.464078369140625,0.1243797553192824,-1.4687505101777611,-5.624309954574704,-0.2618030905723572,-0.8962222933769226,0.3455951511859894,jumping
1783085182341122300,6.474122314453125,0.5782649481836706,0.7020943761438131,-8.667996682715415,-0.1429430842399597,-0.6356201171875,0.4556028544902801,jumping
1783085182351167200,6.484167236328125,1.3393421861067414,2.350904954743385,-10.756203471708297,0.144814133644104,-0.4469141364097595,0.5846948027610779,jumping
1783085182361211400,6.49421142578125,2.0893594661593435,1.9786257396809757,-10.720994211161136,0.3302777409553528,-0.3385639786720276,0.6583258509635925,jumping
1783085182371255300,6.50425537109375,2.0127200247235595,2.107007351052761,-11.26157408326864,0.2338689267635345,-0.2474314123392105,0.7882076501846313,jumping
1783085182381300200,6.51430029296875,1.281378657437861,2.3784512794472277,-11.64741230647564,-0.0852400958538055,-0.2281711548566818,0.9147409200668336,jumping
1783085182391344400,6.524344482421875,0.5040608441360295,2.037615396527201,-12.095034493422508,-0.4450046420097351,-0.4178119301795959,0.9988099932670592,jumping
1783085182401388300,6.53438818359375,-1.1777467257887124,1.9432874459266665,-15.035948829352854,-0.7766644954681396,-0.1966522783041,1.0768104791641235,jumping
1783085182411433200,6.54443310546875,-4.4202202885225415,1.075916582864523,-21.52789443540573,-0.9853740334510804,0.6887494325637817,0.9323060512542723,jumping
1783085182421477400,6.554477294921875,-7.013668801999092,-0.6414943614915013,-25.656264990234373,-0.662074625492096,1.6281311511993408,0.4722912013530731,jumping
1783085182431521500,6.564521484375,-6.853404590284824,-0.8841574549511074,-23.90152560122013,0.0483773723244667,1.9419934749603271,-0.0213238541036844,jumping
1783085182441566200,6.574566162109375,-4.7001788011536,0.18053250823915,-18.812664001083373,0.6009966135025024,1.7705663442611694,-0.3776862025260925,jumping
1783085182451610400,6.5846103515625,-2.021233732177317,1.3762205489099024,-13.80857444156408,0.7638624906539917,1.4650250673294067,-0.5357872247695923,jumping
1783085182461654500,6.594654541015625,0.5194057127840817,2.7142130739733576,-8.623906196576357,0.6593562960624695,0.8844611644744873,-0.5180538296699524,jumping
1783085182471699200,6.60469921875,2.9534803875148294,2.7916253994777795,-2.9143139137744902,0.485056608915329,-0.1346448510885238,-0.5099130272865295,jumping
1783085182481743400,6.614743408203125,4.338248107756674,3.620095161737501,-1.2564707184135913,-0.0532187409698963,-0.4524154961109161,-0.2215377986431121,jumping
1783085182491787300,6.624787353515625,3.8092008525326846,7.429234639471769,-6.796819948753714,-0.1645505875349044,-0.0654366463422775,0.263886421918869,jumping
1783085182501832200,6.634832275390625,2.460543433330953,7.183237433153391,-6.252278771799802,0.4528541564941406,0.0911024138331413,0.4360670447349548,jumping
1783085182511876400,6.64487646484375,0.8768476433943957,4.681786527633666,-3.5100691451370714,0.937138020992279,0.3229361772537231,0.4109070897102356,jumping
1783085182521920300,6.654920166015625,-0.1326663212199695,3.5815398056328296,0.2765694547146559,1.026984930038452,0.4637032151222229,0.3460556864738464,jumping
1783085182531965200,6.664965087890625,-0.5685949833668769,2.573523915822804,5.405786446115374,0.9672806859016418,0.4520662724971771,0.2235012501478195,jumping
1783085182542009300,6.67500927734375,-0.8361295562978833,1.6055515748485922,9.046389850613474,0.7912312150001526,0.3651561439037323,-0.0128584448248147,jumping
1783085182552053200,6.68505322265625,-0.6725687141910195,-0.2041889858976006,12.79446169618368,0.5189722180366516,-0.06534144282341,-0.4116391241550445,jumping
1783085182562098200,6.69509814453125,-0.7571240433178842,-1.1032664351481944,14.287608834862707,-0.020386803895235,-0.1264815330505371,-0.6896277666091919,jumping
1783085182572142300,6.705142333984375,-0.2758454695553519,0.3192866066738963,13.988567436099052,-0.4327610731124878,-0.2210836708545684,-0.8009188771247864,jumping
1783085182582186200,6.715186279296875,-0.3371079849706963,0.9805059515938164,14.338086976212262,-0.4555204212665558,-0.3744098544120788,-0.780759871006012,jumping
1783085182592231200,6.725231201171875,-0.8562639242447913,1.0964473297178745,13.741693446946144,-0.3467401266098022,-0.4203930497169494,-0.6830902695655823,jumping
1783085182602275300,6.735275390625,-2.481636782503128,0.712719522793591,12.80664079427719,-0.2631218135356903,-0.3462328314781189,-0.6260827779769897,jumping
1783085182612319200,6.7453193359375,-4.188908902421593,-1.0004512997746466,12.76464172745943,-0.2681951522827148,-0.2054847478866577,-0.729465901851654,jumping
1783085182622364200,6.7553642578125,-5.500004944992065,-3.008633534938097,12.787073339498042,-0.4245223104953766,-0.018496174365282,-0.9844765663146972,jumping
1783085182632408300,6.765408203125,-5.507655167484283,-4.085366694882512,12.70361998026371,-0.7242315411567688,0.2342609763145446,-1.2812018394470217,jumping
1783085182642452200,6.7754521484375,-4.016705246588588,-4.420010152903199,12.081466571319105,-1.024932861328125,0.5073908567428589,-1.502668380737305,jumping
1783085182652497400,6.785497314453125,-2.1875046369604765,-3.797442317938805,11.542439189350604,-1.1918853521347046,0.6578187346458435,-1.6512846946716309,jumping
1783085182662541300,6.795541259765625,-0.3516322579508647,-3.239522603973746,10.881789168751238,-1.294572114944458,0.6874750256538391,-1.7219897508621216,jumping
1783085182672585200,6.805585205078125,1.431811503228545,-2.0517931210920213,9.673296007043122,-1.2989304065704346,0.6101408004760742,-1.616965651512146,jumping
1783085182682630400,6.81563037109375,2.743373117484152,-1.0901143273040652,8.380808218830824,-1.080965518951416,0.4421016871929168,-1.4202700853347778,jumping
1783085182692674300,6.82567431640625,3.6280984354510903,-0.7970400202512741,7.496762699821591,-0.6410120725631714,0.1297032982110977,-1.1739764213562012,jumping
1783085182702718200,6.83571826171875,4.24060372608453,-0.5389522709056734,7.9941534185439345,-0.1415241211652755,-0.291526198387146,-0.8757506012916565,jumping
1783085182712763400,6.845763427734375,3.87472692541033,-0.7630408661462366,7.158071427714824,0.1245429813861846,-0.3642304837703705,-0.6388168931007385,jumping
1783085182722807300,6.855807373046875,3.053633829398453,-1.5641170100457966,5.546018508148193,0.1744979172945022,-0.1239415183663368,-0.556136965751648,jumping
1783085182732851200,6.865851318359375,1.739367924620211,-1.7813351349949835,5.151151759833097,0.1945595145225525,0.4024394750595093,-0.7928680181503296,jumping
1783085182742896400,6.875896484375,1.496600201742351,-2.5245117553725835,6.742395700126886,0.0980652868747711,0.0953440442681312,-0.6345965266227722,jumping
1783085182752940500,6.8859404296875,2.921555263204872,-4.544854091668129,8.804035384711623,0.1945598721504211,-0.2283908873796463,-0.3979120850563049,jumping
1783085182762984200,6.895984130859375,2.2243416448399422,-2.8203035046905276,9.09755422066152,0.2372586131095886,-0.5164586305618286,-0.2732892334461212,jumping
1783085182773029400,6.906029296875,1.1181507005471736,-1.368351861361414,9.080162940877676,0.3068387508392334,-0.7186578512191772,-0.1971004754304886,jumping
1783085182783073500,6.916073486328125,1.4355420680589972,-1.352813662098348,8.75056799841821,0.5415904521942139,-0.9122132062911988,-0.093226172029972,jumping
1783085182793117200,6.9261171875,1.494626271320879,-1.216071780268848,9.232230402132869,0.8096929788589478,-1.183964490890503,0.0492076724767684,jumping
1783085182803162400,6.936162353515625,1.2318170464113354,-1.1153664035908877,9.66557914905548,0.930749237537384,-1.4077593088150024,0.1458256095647812,jumping
1783085182813206300,6.946206298828125,0.8984663316149264,-0.9395805053569376,9.407513319280744,0.856859028339386,-1.5652940273284912,0.208804577589035,jumping
1783085182823250200,6.956250244140625,0.7370425015367567,-0.7485203194931149,8.964256926327943,0.6804986000061035,-1.6981109380722046,0.2487958371639251,jumping
1783085182833295400,6.96629541015625,0.0315165435090661,-0.8011435100473463,8.294422313275932,0.4928648173809051,-1.7738850116729736,0.2610101401805877,jumping
1783085182843339300,6.97633935546875,-0.7528687239609658,-0.861321353764832,6.189248022869229,0.4503656327724457,-1.7092862129211426,0.1851606220006942,jumping
1783085182853383400,6.986383544921875,-1.0704647471994162,-0.5597668031364679,2.9863620818972585,0.3588924407958984,-1.506927490234375,-0.0001945807598531,jumping
1783085182863428400,6.996428466796875,-0.6316184257738292,0.7417560860551893,1.4991396570920943,0.2383255213499069,-1.301363229751587,-0.0628338679671287,jumping
1783085182873472300,7.00647216796875,-0.2581511699706316,1.860019818522781,-0.330229148709774,0.0250851493328809,-0.8858386278152466,0.1682310253381729,jumping
1783085182883516400,7.016516357421875,-1.9299897190667687,3.3848698170632123,-2.5051135196804997,-0.3095139265060425,-0.0841074734926223,0.737559974193573,jumping
1783085182893561300,7.026561279296875,-4.561643313905597,3.29697642955482,-9.195680832892656,-1.528610110282898,2.3662519454956055,1.1344106197357178,jumping
1783085182903605200,7.036605224609375,-6.162621297228336,1.7489299720831215,-17.37037026680708,-3.3927559852600098,4.308089256286621,1.0030275583267212,jumping
1783085182913649400,7.0466494140625,-5.140980494430661,2.089644128319621,-12.5084457832098,-4.332976341247559,2.80816650390625,1.0397709608078003,jumping
1783085182923694300,7.0566943359375,-3.990015977105498,2.8704738952651616,-10.95034423406124,-3.430798292160034,1.0352153778076172,0.3772727847099304,jumping
1783085182933738200,7.06673828125,-1.071872202844545,-0.1589957992136478,-21.86053415238857,-1.2333691120147705,0.2221123725175857,-0.8306928873062134,jumping
1783085182943782400,7.076782470703125,0.0502319115035235,2.926485413083434,-25.662086828255653,0.883889377117157,0.0292511209845542,-1.324365258216858,jumping
1783085182953827300,7.086827392578125,2.9896503097876903,6.465640951973199,-22.633557337236404,2.006399393081665,-0.2498952895402908,-1.1971313953399658,jumping
1783085182963871200,7.096871337890625,4.737890107649564,6.207051975107192,-16.25607982188463,1.9883887767791748,0.0649110451340675,-0.69657963514328,jumping
1783085182973915400,7.106915283203125,4.696602988493442,5.270244003203511,-14.448493808823825,1.034780740737915,0.6670259237289429,-0.1587164402008056,jumping
1783085182983960300,7.116960205078125,4.7201761717826125,2.64024241335541,-9.881852248239516,0.0909634977579116,0.7624655365943909,0.1814458966255188,jumping
1783085182994004200,7.127004150390625,3.5832816808640953,-0.8236150157049298,-5.999709201353788,-0.1755787134170532,0.3748660981655121,0.2103792876005172,jumping
1783085183004048400,7.13704833984375,2.0987604778416453,-1.5938129139989614,-5.849097784125805,-0.1229342669248581,0.3300861120223999,0.1282199770212173,jumping
1783085183014093300,7.14709326171875,0.5260899397883564,-1.5689103818021717,-8.14000273593664,0.0861102938652038,0.6133971810340881,0.0489347279071807,jumping
1783085183024137200,7.15713720703125,-0.5879512796133757,-2.0587544845372436,-7.84018684566915,0.3089872598648071,0.9844571352005004,-0.0825622826814651,jumping
1783085183034181400,7.167181396484375,-0.8843736549850553,-2.38291381181404,-6.0551885119915,0.3566746115684509,1.2568641901016235,-0.1810502409934997,jumping
1783085183044226300,7.177226318359375,-0.7252857205085456,-2.1229602685965596,-3.395731987339258,0.3084852695465088,1.3182278871536257,-0.185992494225502,jumping
1783085183054270200,7.187270263671875,-0.4756653552569448,-1.8377143170818688,-1.0938006146013737,0.2079533487558365,1.1838710308074951,-0.1827146708965301,jumping
1783085183064314400,7.197314453125,-0.1742260650387033,-1.7030393046543002,-0.2896077999860048,0.0252158157527446,1.002326726913452,-0.1829228550195694,jumping
1783085183074359300,7.207359375,-0.2207792880294844,-1.4695657720834017,-0.9888251593887806,-0.1304675191640854,0.8627051711082458,-0.19645756483078,jumping
1783085183084403200,7.2174033203125,-0.2678999356446787,-1.2416812916912137,-1.6334066732406616,-0.091933362185955,0.6110475063323975,-0.286161720752716,jumping
1783085183094447400,7.227447265625,0.16739815524742,-0.7413533504731953,-0.9012596886605024,0.1305244714021682,0.1452417373657226,-0.3468572795391083,jumping
1783085183104492500,7.237492431640625,0.4295366778211668,0.4253165393754839,-0.2572241182535886,0.3001546263694763,-0.1365978568792343,-0.2774271070957184,jumping
1783085183114536200,7.2475361328125,0.8062080999605357,1.873297671638429,-0.2884048539370298,0.4312737584114074,-0.3155739903450012,-0.1109939217567443,jumping
1783085183124580400,7.257580322265625,1.133198632075265,2.4921076153740285,0.805460642594099,0.634384274482727,-0.487694650888443,0.0802220478653907,jumping
1783085183134625300,7.267625244140625,0.7243330228935927,2.6400012980759144,2.17424139689207,0.8361168503761292,-0.6430107355117798,0.2422136068344116,jumping
1783085183144669200,7.277669189453125,0.1981447007646784,2.102315539974719,3.6233015565633777,0.9997536540031432,-0.8117290735244751,0.3501273989677429,jumping
1783085183154713300,7.28771337890625,-0.2683329567670822,1.4751777667462824,5.0435459561169145,1.0668282508850098,-0.9640584588050842,0.4143987894058227,jumping
1783085183164758300,7.29775830078125,-0.987829645545408,0.4935787592187523,6.362614292740822,0.9685119390487672,-1.0892490148544312,0.366764634847641,jumping
1783085183174802200,7.30780224609375,-1.5561656126499177,-0.8346801612071693,7.483006561669707,0.6950141191482544,-1.1535019874572754,0.2378095835447311,jumping
1783085183184846300,7.317846435546875,-2.0810081096604467,-1.8768103559345009,7.747556492766737,0.3055243194103241,-1.1056749820709229,0.0315081588923931,jumping
1783085183194891300,7.327891357421875,-2.150324368601292,-2.564620186138153,7.537121598216891,-0.0752850621938705,-0.9786014556884766,-0.2143253087997436,jumping
1783085183204935400,7.337935302734375,-1.7401123132467269,-2.31150218802914,7.037802541780471,-0.3481254577636719,-0.8164926171302795,-0.398323655128479,jumping
1783085183214979300,7.347979248046875,-0.9228943051025272,-1.28118006612584,6.489182571080327,-0.4327407479286194,-0.7075735926628113,-0.461758553981781,jumping
1783085183225024300,7.358024169921875,0.0055728316962718,-0.1720819291494786,5.847513729804754,-0.3888652622699737,-0.6443400382995605,-0.42411670088768,jumping
1783085183235068400,7.368068359375,0.8240249847453087,0.5395006985686719,5.07798247872591,-0.2590002119541168,-0.5861355662345886,-0.3006147444248199,jumping
1783085183245112300,7.3781123046875,1.1979773937169462,1.1312561927706002,4.414198836275935,-0.1624697148799896,-0.4655398428440094,-0.0988069847226142,jumping
1783085183255157200,7.3881572265625,1.1868716239433734,1.036129931399226,3.88296196205318,-0.1471456289291381,-0.3107523918151855,0.0941283777356147,jumping
1783085183265201400,7.398201416015625,1.0877235597100108,0.561821982100606,3.755608670815825,-0.1641470193862915,-0.1732147186994552,0.2504423260688782,jumping
1783085183275245300,7.408245361328125,0.6922284503635019,0.1599270887143909,3.8865281301021577,-0.1948620527982711,-0.1061893552541732,0.3678195476531982,jumping
1783085183285290200,7.418290283203125,0.2912856700703501,-0.209557527193427,4.265422233259677,-0.2210859656333923,-0.1525557190179824,0.4200462102890014,jumping
1783085183295334400,7.42833447265625,0.0210106393247842,-0.5970595919594168,4.5678848386436695,-0.2156611084938049,-0.2912765741348266,0.3989028632640838,jumping
1783085183305378300,7.43837841796875,-0.2052764158081263,-0.8396436288334429,4.499275412797927,-0.1521269232034683,-0.4525569677352905,0.3419608175754547,jumping
1783085183315422200,7.448422119140625,-0.4372207660503685,-0.6862959185093641,4.429795049336552,-0.0126712964847683,-0.6725074648857117,0.2733383476734161,jumping
1783085183325467400,7.45846728515625,-0.4032131363779306,-0.659488575604558,4.5331367658674715,0.1454614698886871,-0.8716199994087219,0.1870911419391632,jumping
1783085183335511300,7.46851123046875,-0.2866917664088309,-0.5174097166612744,4.052838051721453,0.2607725858688354,-0.9286051988601683,0.1487544029951095,jumping
1783085183345556200,7.47855615234375,-0.1691600503534078,-0.0211459561422467,3.731456226333976,0.2931681275367737,-0.903429627418518,0.1737699508666992,jumping
1783085183355600400,7.488600341796875,-0.102327278791368,0.1297673666417598,3.5739720007270575,0.2052917927503585,-0.7213194370269775,0.2089329957962036,jumping
1783085183365644300,7.498644287109375,-0.2012852272801101,-0.3887498728699982,2.941006690388918,0.0202121101319789,-0.4601379632949829,0.1515236496925354,jumping
1783085183375688200,7.508688232421875,-0.4659662374109029,-0.7421880477316677,2.897600679382682,-0.2125907838344574,-0.1515447199344635,0.0890722423791885,jumping
1783085183385733400,7.5187333984375,-0.8891917958565055,-1.0855281685575842,1.9268144500315187,-0.453351080417633,0.248571828007698,0.0243392754346132,jumping
1783085183395776800,7.52877685546875,-1.2353018197871743,-1.68477153429687,0.9156815972447396,-0.6538527607917786,0.5465061068534851,-0.0686311423778534,jumping
1783085183405821000,7.538821044921875,-1.3109402674868702,-1.8173396375730633,0.6108657067328691,-0.7487053871154785,0.4812089204788208,-0.1438339948654174,jumping
1783085183415865900,7.548865966796875,-0.9175281018942594,-1.5983336062937974,0.1755570579141378,-0.7030412554740906,0.1214411556720733,-0.1515430510044098,jumping
1783085183425909800,7.55890966796875,-0.3414743269540369,-0.6638461862921714,-1.974168321880698,-0.5246571898460388,-0.1900529563426971,-0.0363323874771595,jumping
1783085183435954000,7.568953857421875,0.1367037417761981,0.9777591371037064,-4.9935932999461885,-0.2301693707704544,-0.3892592489719391,0.1437918543815612,jumping
1783085183445998800,7.578998779296875,0.930416955692321,2.112281053671986,-7.046319025713205,0.0551397539675235,-0.6006221771240234,0.3000575602054596,jumping
