time,seconds_elapsed,accel_x,accel_y,accel_z,gyro_x,gyro_y,gyro_z,label
1783088520082135000,0.058135009765625,1.0959411337614058,0.7155829494006931,-0.3503349481493234,-0.1994945853948593,0.3436191976070404,-0.0927601009607315,jumping
1783088520092179000,0.068178955078125,0.7940425920009613,0.4191359510444104,-0.1798205605775117,-0.2217495590448379,0.4669222235679626,-0.0768181532621383,jumping
1783088520102222800,0.078222900390625,0.3702116150081157,0.1457458570182323,0.0514291584640741,-0.3008199334144592,0.5296360850334167,-0.0948768705129623,jumping
1783088520112268000,0.08826806640625,0.1221994886707514,-0.0963446972504258,0.3350076151579618,-0.3809294104576111,0.4904034435749054,-0.1307589709758758,jumping
1783088520122312000,0.09831201171875,0.1944817578103393,-0.1844441287249326,0.3131149323016405,-0.4095498621463775,0.3908555507659912,-0.1820226907730102,jumping
1783088520132355800,0.10835595703125,0.4002021179936826,-0.0770852855071425,0.0352244581162929,-0.369667649269104,0.2658969759941101,-0.2142740190029144,jumping
1783088520142401000,0.118401123046875,0.6695018739663064,-0.0071928341135382,-0.2128688436985015,-0.2972985506057739,0.161875307559967,-0.2245329916477203,jumping
1783088520152445000,0.12844482421875,0.7332404058400541,-0.0286735751681029,-0.3067500734448433,-0.2465240508317947,0.1027648523449897,-0.2085945308208465,jumping
1783088520162488800,0.13848876953125,0.8246331797715276,-0.0887581876441836,-0.1001473044037818,-0.2562879025936126,-0.0205092914402484,-0.1654283106327057,jumping
1783088520172534000,0.148533935546875,1.033812375171855,-0.1716927837014198,-0.0176589908093214,-0.2966736853122711,-0.2608388066291809,-0.0776894092559814,jumping
1783088520182578000,0.158577880859375,1.2029615388050674,-0.2946890487730503,-0.5210597636014223,-0.2271751165390014,-0.55795818567276,0.0231266375631093,jumping
1783088520192621800,0.168621826171875,1.0900407506112009,-0.334926951137185,-1.3061802134782077,-0.0265645235776901,-0.8140876889228821,0.0934450030326843,jumping
1783088520202665700,0.178665771484375,0.8840808095183222,-0.2912697418488562,-1.602062855949998,0.2008683532476425,-0.9729346036911012,0.1284964382648468,jumping
1783088520212711000,0.1887109375,0.8646504981875419,-0.2588955585971474,-1.3676643174886702,0.3431674540042877,-1.0514986515045166,0.1480940878391266,jumping
1783088520222755000,0.198755126953125,1.0349376528747378,-0.0629774113081395,-0.9020429479926824,0.3625577390193939,-1.0834743976593018,0.1664734482765197,jumping
1783088520232798700,0.208798828125,1.3242302494317293,0.3346178851880133,-0.2559299867898225,0.2800918817520141,-1.1004676818847656,0.2009781599044799,jumping
1783088520242844000,0.218843994140625,1.4915896801039576,0.7704273231357336,0.4205845424175262,0.1148585379123687,-1.11325204372406,0.2403797209262848,jumping
1783088520252888000,0.22888818359375,1.5349205800473689,1.0600992743991315,0.971203577980399,-0.088736668229103,-1.1348724365234375,0.3075007200241089,jumping
1783088520262931700,0.238931640625,1.2003446343049406,1.1466107060298325,1.0399445212513208,-0.2663916349411011,-1.0919387340545654,0.3786102533340454,jumping
1783088520272977000,0.248976806640625,0.7728317539289593,1.0346328247092664,1.0951748255640268,-0.3314489126205444,-1.0464333295822144,0.4342831075191498,jumping
1783088520283021000,0.25902099609375,0.8658515445403754,0.9036329936631023,1.1552221747696398,-0.2599218487739563,-0.9791883826255798,0.481094479560852,jumping
1783088520293065000,0.26906494140625,1.1096117855869232,0.795701172862947,1.15432668723464,-0.1675498336553573,-0.8680176138877869,0.5186549425125122,jumping
1783088520303110000,0.27910986328125,1.353543437677622,0.782171390812844,1.324963824403286,-0.1510429829359054,-0.6884916424751282,0.5636112093925476,jumping
1783088520313154000,0.289154052734375,1.5930514281071722,0.9072804102547466,1.5769512110471724,-0.1931555569171905,-0.4775985479354858,0.6210036873817444,jumping
1783088520323198000,0.299197998046875,1.8269846871443092,0.9607638709001244,1.7729197733491655,-0.2301544249057769,-0.2617003917694092,0.6677756309509277,jumping
1783088520333241900,0.309241943359375,1.9865143009737132,1.047261127875,1.8691624715298416,-0.2190548926591873,-0.033501598984003,0.723727285861969,jumping
1783088520343287000,0.319287109375,2.024240512777865,1.3983134305134417,2.272981757107377,-0.209490492939949,0.1743052750825882,0.7950253486633301,jumping
1783088520353331000,0.3293310546875,1.8217019244357944,1.8088823364816604,3.233236071050167,-0.2546555697917938,0.3130098879337311,0.9321480393409728,jumping
1783088520363374800,0.339374755859375,1.4738887498490512,2.07620319359675,4.68966880531609,-0.3469265699386596,0.3020777106285095,1.110725164413452,jumping
1783088520373420000,0.349419921875,1.205391834691912,2.2064070519596335,5.977425473353266,-0.4075470268726349,0.1853622794151306,1.2905998229980469,jumping
1783088520383464000,0.3594638671875,0.8431570437818765,1.9215237962774931,6.941378057292104,-0.4030480980873108,0.018364667892456,1.4283281564712524,jumping
1783088520393507800,0.3695078125,0.6682264472030103,1.4713316127121447,7.439809224978089,-0.3232416808605194,-0.1378395855426788,1.4984025955200195,jumping
1783088520403553000,0.379552978515625,0.729182727947086,1.248727849201858,7.259757193732261,-0.1724237948656082,-0.2395057827234268,1.5230393409729004,jumping
1783088520413597000,0.389596923828125,0.8730496393509208,0.4044843253575265,7.0464131337374445,-0.0260066613554954,-0.2892365753650665,1.3848079442977903,jumping
1783088520423641000,0.39964111328125,0.4770249531723559,-1.6302799195222557,6.715353963944316,0.0252866391092538,-0.2766540050506592,1.0278891324996948,jumping
1783088520433686000,0.40968603515625,-0.364008084192872,-3.4199984135895964,5.708644772818684,-0.0313265733420848,-0.0989548414945602,0.5525480508804321,jumping
1783088520443730000,0.41972998046875,-0.8686331380829214,-4.427792477342486,4.274747110965848,-0.1357396692037582,0.1687831431627273,0.066069096326828,jumping
1783088520453774000,0.429774169921875,-0.6568662642769515,-4.551776584407687,3.1170190908551216,-0.1797017902135849,0.3783933520317077,-0.3670114874839782,jumping
1783088520463819000,0.439819091796875,-0.610785627233982,-4.795328151139617,1.1278963609486818,-0.1269458979368209,0.5307834148406982,-0.7644624710083008,jumping
1783088520473863000,0.44986279296875,-0.8086118001013993,-5.115167423260211,-1.6903268303364514,-0.060629729181528,0.8083793520927429,-1.1610431671142578,jumping
1783088520483907000,0.459906982421875,-1.0667305291071534,-4.684049796390533,-3.771037710615993,-0.0385007709264755,1.2116578817367554,-1.484110951423645,jumping
1783088520493950700,0.46995068359375,-1.8465373827457428,-3.444221000698209,-4.08981023028791,-0.1241890415549278,1.712872862815857,-1.6395306587219238,jumping
1783088520503996000,0.479995849609375,-3.0209207695811986,-2.1174312760420144,-2.5024153666377065,-0.1623109877109527,2.043046236038208,-1.554754376411438,jumping
1783088520514040000,0.4900400390625,-3.114865712213516,-0.860375597347319,-0.5496943219333886,-0.109336718916893,2.1019394397735596,-1.317068576812744,jumping
1783088520524084000,0.500083984375,-2.545140117381513,-0.5312463727034628,-1.4581728559315204,-0.1826903820037841,1.9809808731079104,-1.0490608215332031,jumping
1783088520534129000,0.51012890625,-1.5800776725046335,-0.3311722747787833,-3.450508702665567,-0.3103490173816681,1.6513196229934692,-0.6974378228187561,jumping
1783088520544173000,0.520173095703125,-0.5802707350481301,0.1058516535252332,-5.600080353203415,-0.292558342218399,1.0478585958480835,-0.3446390926837921,jumping
1783088520554217000,0.530217041015625,-0.103256814726442,1.209052987547964,-8.201782023501396,-0.0968101397156715,0.4486154019832611,-0.0388938076794147,jumping
1783088520564262000,0.540261962890625,0.0496310960661619,2.9354075552076098,-10.256296970772745,0.1280163079500198,-0.163622960448265,0.219992309808731,jumping
1783088520574306000,0.55030615234375,-0.2007610572755336,3.773283151455223,-11.37979714258909,0.2523733973503113,-0.6869460940361023,0.3679268956184387,jumping
1783088520584350000,0.560349853515625,-1.2819132027059792,3.1350498375862834,-11.627503490912911,0.2136874198913574,-1.120017170906067,0.2947567403316498,jumping
1783088520594395000,0.570394775390625,-1.4415094520308076,1.826709815725684,-11.540818894672393,0.1510048657655716,-1.5406863689422607,0.0283463504165411,jumping
1783088520604439000,0.58043896484375,-1.502320040693879,0.6443243242204189,-12.734973734426498,0.1878633648157119,-1.7992104291915894,-0.3483350574970245,jumping
1783088520614483000,0.59048291015625,-1.424211111227423,-0.517612984148413,-14.795980381804704,0.1533402800559997,-1.8694909811019895,-0.8049100637435913,jumping
1783088520624528000,0.60052783203125,-1.4685687238700686,-1.1142055431179705,-16.97146447223425,-0.0699703395366668,-1.7201592922210691,-1.2366551160812378,jumping
1783088520634571800,0.61057177734375,-1.8416089864328504,-0.8626569862827658,-18.210220670259,-0.3798136711120605,-1.4037598371505735,-1.5509276390075684,jumping
1783088520644616000,0.620615966796875,-2.3348908085316418,-0.1565244406640529,-17.896921613562107,-0.643092930316925,-1.0077885389328003,-1.7237392663955688,jumping
1783088520654660000,0.63066015625,-2.582317170870304,0.5799028515838086,-15.79346698655486,-0.8071564435958862,-0.752112865447998,-1.8111900091171265,jumping
1783088520664704800,0.640704833984375,-2.3911579085461794,1.2751162360422312,-13.189534196203946,-0.8464666604995728,-0.7182958126068115,-1.8020538091659544,jumping
1783088520674749000,0.6507490234375,-2.0564936999984083,2.1569160219512877,-11.86733282225132,-0.6467969417572021,-0.716163158416748,-1.6487656831741333,jumping
1783088520684793000,0.66079296875,-1.7855680963896214,2.976036502715945,-11.387250965726375,-0.1867772787809372,-0.5356709361076355,-1.367880940437317,jumping
1783088520694837800,0.670837646484375,-0.7783741904869675,3.202546918275952,-9.267827200692892,0.2647430300712585,-0.4104621112346649,-1.0814476013183594,jumping
1783088520704882000,0.6808818359375,-0.0160321202598512,2.378950168880075,-6.16772534236908,0.4864184558391571,-0.3795985579490661,-0.8634177446365356,jumping
1783088520714926000,0.690926025390625,0.3712847971975803,1.3617584544457495,-2.4614959117501973,0.4566419422626495,-0.476299524307251,-0.7426271438598633,jumping
1783088520724970800,0.700970703125,0.7224097266808152,0.8299408577255905,0.9118635002613068,0.2745271921157837,-0.6571282744407654,-0.6856734156608582,jumping
1783088520735015000,0.711014892578125,1.5888757498577235,1.0937142514921725,3.7790140963226553,0.0657241716980934,-0.9954469203948976,-0.6719602942466736,jumping
1783088520745059000,0.72105908203125,2.915569759054482,2.217638493939489,5.823738886463642,-0.0158396214246749,-1.6047428846359253,-0.5875673294067383,jumping
1783088520755103700,0.731103759765625,3.058589405979216,2.898086709333956,5.985939619198441,0.083589494228363,-2.043285131454468,-0.4200246334075928,jumping
1783088520765148000,0.74114794921875,2.029849877092242,2.714574016240239,6.905937326076627,0.2044763416051864,-2.2704429626464844,-0.295558214187622,jumping
1783088520775192000,0.751192138671875,1.2537728576317428,1.9270821610569953,9.4606551268816,0.1608574837446212,-2.35260272026062,-0.2440441697835922,jumping
1783088520785236000,0.761236083984375,2.067590117421746,0.5162145155273378,11.358104366219044,-0.0799688696861267,-2.2636265754699707,-0.2493948936462402,jumping
1783088520795281000,0.771281005859375,3.507354040959477,0.0678168141633272,11.75339781551361,-0.3763501942157745,-2.1137471199035645,-0.2414192706346511,jumping
1783088520805324800,0.78132470703125,4.821489012834429,-0.1048033135160803,11.845953349614142,-0.5374338030815125,-2.0364975929260254,-0.1897019147872924,jumping
1783088520815369000,0.791368896484375,5.638004717928171,-0.5544952924743295,11.65595217128396,-0.4954656064510345,-1.96331250667572,-0.1006063967943191,jumping
1783088520825414000,0.801413818359375,6.298515037795901,-0.8148449954025447,11.288279719364642,-0.3320375680923462,-1.8328553438186648,-0.0055491663515567,jumping
1783088520835457800,0.811457763671875,6.725570822054148,-0.6766580293312668,10.733151097422835,-0.1352270245552063,-1.5377354621887207,0.0926463752985,jumping
1783088520845502000,0.821501953125,6.6777107542484995,-0.4122957297608256,10.324738638836145,0.0172393564134836,-1.0931971073150637,0.186815083026886,jumping
1783088520855546600,0.831546630859375,6.395391942226887,-0.4084069056287407,10.033505283474922,0.0919913575053215,-0.5278427600860596,0.2553869485855102,jumping
1783088520865590800,0.8415908203125,5.85466418608129,-0.3661591247469186,9.830729963767528,0.0996740087866783,0.1565656960010528,0.2941439151763916,jumping
1783088520875635000,0.851635009765625,5.022582663065195,-0.4281140611395239,9.835782570981978,0.0443987697362899,0.920425295829773,0.28664231300354,jumping
1783088520885679600,0.8616796875,3.995800990247726,-0.4242999096788465,9.564525835722684,-0.1036551743745803,1.6604762077331543,0.3007626235485077,jumping
1783088520895723800,0.871723876953125,3.378771792449057,-0.4348717187061905,8.952519726783036,-0.3081776797771454,2.225341320037842,0.3654452264308929,jumping
1783088520905768000,0.881767822265625,3.1843720868989824,-0.545040650908649,7.994463215145468,-0.4753656685352325,2.561464309692383,0.4430531561374664,jumping
1783088520915812600,0.8918125,2.9438860452175137,-0.9215075269192456,6.649201283600926,-0.527979850769043,2.7569468021392822,0.4875527322292328,jumping
1783088520925856800,0.901856689453125,2.575625856538117,-1.734608455133438,5.808365376242995,-0.4795530140399933,2.8275039196014404,0.4574714303016662,jumping
1783088520935901000,0.91190087890625,1.9373972188442945,-2.7091327019691467,5.67983836505115,-0.3741552233695984,2.7888519763946533,0.3796139061450958,jumping
1783088520945944800,0.92194482421875,1.5806681857436895,-3.668733520439267,6.2002972401499745,-0.2496257126331329,2.556580066680908,0.2510105073451996,jumping
1783088520955989800,0.93198974609375,1.7116610025271772,-4.465051656156778,7.207597967427969,-0.1391940116882324,2.112372636795044,0.0869030505418777,jumping
1783088520966034000,0.942033935546875,2.3841668806150556,-4.012664739026129,8.092717837670445,-0.0914549455046653,1.7051634788513184,-0.0734727308154106,jumping
1783088520976077800,0.952077880859375,2.734153161457181,-3.665925185020268,8.802905503898858,-0.1922049820423126,1.2628310918807983,-0.2080638408660888,jumping
1783088520986122800,0.962122802734375,2.9963989072650667,-3.208461403016746,8.93535524149239,-0.2829134464263916,1.0182206630706787,-0.2535795271396637,jumping
1783088520996167000,0.9721669921875,3.3802690452694892,-2.212714335410297,9.508537991040944,-0.3011814057826996,0.7434641718864441,-0.2078823447227478,jumping
1783088521006210800,0.9822109375,3.597141279390454,-1.2624787266567348,9.733030052515865,-0.2332375645637512,0.3922877907752991,-0.0561810061335563,jumping
1783088521016255700,0.992255859375,3.172410723209381,-0.756709471167624,9.258811535066366,-0.1815538555383682,0.0847422182559967,0.1037884205579757,jumping
1783088521026299600,1.002299560546875,2.2704006545729936,-0.1944718940034508,8.835935082319379,-0.1886114925146103,-0.1933128535747528,0.2714259028434753,jumping
1783088521036343800,1.01234375,2.834788541638851,0.437237571054697,8.045076965573429,-0.1850841343402862,-0.4988123178482055,0.4840883612632751,jumping
1783088521046389000,1.022388916015625,3.852240076053142,1.5661866559267044,7.031068849611282,-0.0843511968851089,-0.9022901654243468,0.7354009747505188,jumping
1783088521056432600,1.0324326171875,2.74230490373075,1.9845301414191725,6.053854048517346,0.0451362282037735,-1.1983259916305542,0.8885971903800964,jumping
1783088521066476800,1.042476806640625,0.7866554043591022,1.8007672729566693,4.786400748318433,0.110239639878273,-0.9685912132263184,0.9672096967697144,jumping
1783088521076521000,1.05252099609375,0.999156583788991,1.716661587293446,3.1498043391257524,0.1496200710535049,-0.3867643177509308,1.050597071647644,jumping
1783088521086565600,1.062565673828125,0.0813008573755621,2.342964224871993,1.158707678797841,0.1659789979457855,0.4429263472557068,1.1268693208694458,jumping
1783088521096609800,1.07260986328125,-2.0169779744289813,3.353590589441359,-1.1362205371797085,-0.0913878306746482,1.3652325868606567,1.253995060920715,jumping
1783088521106654000,1.082654052734375,-3.690339203047752,3.701318862223625,-5.552184045040607,-0.5478112697601318,2.2823646068573,1.318034052848816,jumping
1783088521116698600,1.09269873046875,-6.012019816872477,3.5708033075630663,-13.63908764347434,-0.8755353093147278,3.629448652267456,1.0709326267242432,jumping
1783088521126742800,1.10274267578125,-7.771382774034142,1.2115686236307024,-23.94429156075716,-0.6460061073303223,5.25515079498291,0.3682899475097656,jumping
1783088521136787000,1.112786865234375,-6.993098307657242,-2.7154797329083085,-29.479201814913747,0.0180847626179456,6.410191535949707,-0.660283625125885,jumping
1783088521146832000,1.122831787109375,-2.695679053895175,-1.9432593888759613,-26.070508639192575,0.4975597560405731,6.2631402015686035,-1.3767026662826538,jumping
1783088521156875800,1.132875732421875,1.757200810691714,2.3805577502071857,-17.662058380198477,0.9010862112045288,4.879866600036621,-1.6170992851257324,jumping
1783088521166919700,1.142919677734375,0.3343934653149917,0.7179360883980989,-15.9094349604249,1.1673007011413574,3.5141139030456543,-2.0445070266723633,jumping
1783088521176964900,1.15296484375,-1.143178612689301,-1.8914228186547757,-16.935229960292578,0.984656035900116,1.9019174575805664,-2.1698169708251953,jumping
1783088521187008800,1.1630087890625,-1.193881868031621,-1.5469976790711282,-18.754653710663316,0.6632084250450134,0.5373096466064453,-2.0745961666107178,jumping
1783088521197052700,1.173052734375,-0.0766183986477553,-1.258919865131378,-22.289797675824165,0.4731405377388,-0.6917067170143127,-1.8439366817474363,jumping
1783088521207096800,1.183096923828125,1.3449088803231717,0.0016807926937937,-24.844609584653377,0.2350333482027053,-1.3405234813690186,-1.403518795967102,jumping
1783088521217141800,1.193141845703125,2.2804696286447346,2.1347911377742887,-25.854852795124053,0.0916700586676597,-1.7913330793380735,-0.8750786781311035,jumping
1783088521227185700,1.203185546875,1.6158583031989633,4.022288599678874,-23.189133702945707,0.3014806509017944,-1.93340802192688,-0.2251879125833511,jumping
1783088521237229800,1.213229736328125,0.2086277172637172,5.646128403151035,-19.07975075718164,0.4361329972743988,-1.7624118328094482,0.167193979024887,jumping
1783088521247274800,1.223274658203125,-1.0430179373472928,5.239861724421382,-11.680077727758883,0.4252695739269256,-1.8354263305664065,0.3228556215763092,jumping
1783088521257318700,1.233318603515625,-1.4696274391427635,3.4349858471021055,-6.713657096898555,0.0502413660287857,-1.9621648788452148,0.198936328291893,jumping
1783088521267362800,1.24336279296875,-0.5614954900925979,2.6566744927182793,-8.412308103466033,-0.0534816347062587,-1.1471474170684814,0.0030229273252189,jumping
1783088521277408000,1.253407958984375,0.0504741592941805,3.814472947716713,-2.9805303070038556,-0.0681601762771606,-0.8641842007637024,-0.1457194089889526,jumping
1783088521287451600,1.26345166015625,1.282478727634251,4.209021716123819,-2.4265344884842635,-0.0472920387983322,-0.8894256353378296,-0.083610326051712,jumping
1783088521297495800,1.273495849609375,0.9847913738280534,3.0371269312337037,-1.067443353551626,0.0513402633368968,-0.9120531678199768,-0.2110729366540908,jumping
1783088521307541000,1.283541015625,0.3266125656478106,0.9100789549320936,1.6968991944640874,0.1100829318165779,-0.9524551630020142,-0.481055736541748,jumping
1783088521317584600,1.293584716796875,-0.1101424095217138,0.2103223740860819,4.7869303251504896,0.0570556670427322,-0.9547294974327089,-0.8027839660644531,jumping
1783088521327628800,1.30362890625,0.5292054414603858,0.1888406101182103,7.868828418263792,-0.141374722123146,-0.9699561595916748,-1.035679578781128,jumping
1783088521337672700,1.313672607421875,1.5908280529692769,0.7700418309494853,10.91300731383562,-0.3636743426322937,-1.0442173480987549,-1.165918231010437,jumping
1783088521347718000,1.3237177734375,1.3830182462260123,0.8306564586490393,14.803157141566276,-0.5879891514778137,-1.3323125839233398,-1.2005740404129028,jumping
1783088521357761800,1.33376171875,1.3858845954425631,0.7648410474359989,16.680051084131,-0.7316946983337402,-1.720220923423767,-1.1501986980438232,jumping
1783088521367805700,1.3438056640625,1.9032596791818737,0.8308017123386263,16.98559821152687,-0.662042498588562,-2.2012593746185303,-1.039838194847107,jumping
1783088521377851000,1.353850830078125,2.6026354440167543,0.7845245298102498,16.06493414969444,-0.3998055160045624,-2.645060777664185,-0.9070692658424376,jumping
1783088521387894800,1.363894775390625,3.3213919088870285,0.3160243900075554,14.757744466912746,-0.1347901225090026,-3.019359827041626,-0.7640058398246765,jumping
1783088521397938700,1.373938720703125,3.8741242833420633,-0.3937617096826434,13.153842120575904,0.0555521249771118,-3.159733772277832,-0.5835186243057251,jumping
1783088521407983900,1.38398388671875,4.244517100135981,-1.146189850269258,11.561688664221762,0.1699267774820327,-3.0530343055725098,-0.3761828541755676,jumping
1783088521418027800,1.39402783203125,4.096104654256999,-1.79738084538877,10.041964484262468,0.1558101624250412,-2.6807327270507812,-0.1942023932933807,jumping
1783088521428071700,1.40407177734375,3.612976854164898,-2.472811378751695,8.999823329749702,-0.0188653077930212,-2.120208263397217,-0.0798418223857879,jumping
1783088521438116900,1.414116943359375,3.027102380825579,-3.386276176729798,7.960161717092991,-0.2927168309688568,-1.3171164989471436,-0.068231500685215,jumping
1783088521448160800,1.424160888671875,2.8165900371253487,-3.61649801402837,7.226050738963484,-0.5895645618438721,-0.3734252154827118,-0.1101590692996978,jumping
1783088521458204700,1.43420458984375,2.7399989648759364,-3.3802167305603623,6.937790846455097,-0.7822322845458984,0.4903556406497955,-0.1305484920740127,jumping
1783088521468249900,1.444249755859375,2.552751176907122,-3.4518285530924797,6.594609277191758,-0.8585844039916992,1.2538797855377195,-0.2128693908452987,jumping
1783088521478294000,1.4542939453125,2.439993397255242,-3.767099494384229,6.33872605215311,-0.8744978904724121,1.8790030479431152,-0.3668312430381775,jumping
1783088521488337700,1.464337646484375,2.477384093494713,-4.116564381700754,6.602133827477693,-0.826180636882782,2.153218984603882,-0.5276640057563782,jumping
1783088521498381800,1.4743818359375,2.2065470449522135,-4.436772487133741,6.694908557286858,-0.6949176788330078,2.1112847328186035,-0.6707887053489685,jumping
1783088521508427000,1.484427001953125,1.8184069745436309,-4.50172368273288,6.923026408043503,-0.5328001379966736,1.878050446510315,-0.786372721195221,jumping
1783088521518470700,1.494470703125,1.8110206636846065,-4.227011254061758,7.480400178563595,-0.4289970397949219,1.5305140018463137,-0.8503050804138184,jumping
1783088521528514800,1.504514892578125,2.0047928849861023,-4.044437303122878,7.868895053759217,-0.4091655910015106,1.132206916809082,-0.8715726137161255,jumping
1783088521538560000,1.51456005859375,2.1974168130353093,-3.9178859759181734,8.017520265606045,-0.3775160312652588,0.7514587640762329,-0.8662369251251221,jumping
1783088521548603600,1.524603759765625,2.5755744186118243,-3.3843981078982353,8.183353801885247,-0.2698523998260498,0.389885812997818,-0.799373209476471,jumping
1783088521558647800,1.534647705078125,2.9694629695445296,-2.621737911632657,8.19975899324119,-0.0894434601068496,0.0916831493377685,-0.6514319777488708,jumping
1783088521568693000,1.54469287109375,3.01862359855473,-1.810689532034099,8.104490108528733,0.0988970547914505,-0.0787480548024177,-0.4774770140647888,jumping
1783088521578737000,1.55473681640625,3.227791249647737,-1.313339145322144,8.673186068052052,0.2312846481800079,-0.2402357459068298,-0.292837917804718,jumping
1783088521588780800,1.56478076171875,3.205477126508951,-0.8488304132431745,9.629263388571143,0.2629325091838836,-0.4309796690940857,-0.0801968649029731,jumping
1783088521598826000,1.574825927734375,2.722138606275618,-0.390248733125627,10.633643259966371,0.1602556556463241,-0.5957038998603821,0.1192310228943824,jumping
1783088521608870000,1.584869873046875,2.0694681862533093,0.2499196404591202,11.519960815560816,0.0608044937252998,-0.7836781740188599,0.3404683768749237,jumping
1783088521618913800,1.594913818359375,1.735223956683278,0.32178806810081,11.555565212905409,0.0397500768303871,-0.9261575937271118,0.4331767559051513,jumping
1783088521628957700,1.604957763671875,1.5206184984505176,1.3104428393587468,10.301144997280836,0.0555924251675605,-0.8992162346839905,0.5341105461120605,jumping
1783088521639003000,1.6150029296875,2.1876976753145456,2.976807194827497,8.67110283203721,0.0207705274224281,-0.8982724547386169,0.6809338331222534,jumping
1783088521649046800,1.625046875,3.5713571420535444,3.576861584688723,6.294906784170865,-0.0951022803783416,-0.9012378454208374,0.7511885166168213,jumping
1783088521659090700,1.635090576171875,3.082068481244147,3.9718741712152954,3.3197301131546495,-0.2664708495140075,-0.8631751537322998,0.7885180711746216,jumping
1783088521669136000,1.645135986328125,0.484593780991435,4.108708992025256,-0.3841384335517883,-0.4085233211517334,-0.5556951761245728,0.9106743335723876,jumping
1783088521679180000,1.655179931640625,-2.1890262935698033,3.8518905319631096,-4.734386483442783,-0.482707530260086,0.1566003113985061,1.1333729028701782,jumping
1783088521689223700,1.6652236328125,-2.9923502163961526,2.560860541343689,-9.24735081437528,-0.4470527470111847,1.254255294799805,1.231281042098999,jumping
1783088521699268900,1.675268798828125,-3.987881010903418,1.209752806380391,-15.78915906022787,-0.3796912729740143,3.009394407272339,1.1889746189117432,jumping
1783088521709313000,1.68531298828125,-6.162864458334446,-1.125445460665226,-24.48103696926832,-0.521442174911499,5.280670642852783,1.0224891901016235,jumping
1783088521719356700,1.695356689453125,-5.685383724218607,-3.986484588108957,-24.568217240071295,-0.6065586805343628,6.166259288787842,0.5668554306030273,jumping
1783088521729401900,1.70540185546875,-3.165204152831435,-3.4344057091265916,-17.694141617679595,-0.0983559936285018,5.144627094268799,0.1500700712203979,jumping
1783088521739446000,1.715446044921875,-1.7008223592571914,0.3705892161488532,-15.009773939132687,0.7810109853744507,3.5028445720672607,-0.1506748497486114,jumping
1783088521749489700,1.72548974609375,-3.2264132392928,2.0892089517727492,-15.493796642237902,1.531605243682861,2.155266761779785,-0.5042197704315186,jumping
1783088521759533800,1.735533935546875,-4.339821348422766,1.889562285479903,-14.969785627615453,1.665832281112671,0.852459192276001,-0.9065957069396972,jumping
1783088521769579000,1.7455791015625,-3.980187533791363,0.6917246655598283,-15.849705006605388,1.2252200841903689,-0.5361447930335999,-1.37198805809021,jumping
1783088521779623000,1.755622802734375,-3.498813591629266,0.2451201312229037,-19.356776723492143,0.6066383719444275,-1.8955286741256712,-1.63086199760437,jumping
1783088521789666800,1.765666748046875,-2.4189425720505415,2.3221248504608867,-23.711822529053688,0.0937315747141838,-2.7180986404418945,-1.5253326892852783,jumping
1783088521799712000,1.7757119140625,-1.6423526346318422,4.415668032045662,-25.991962925744055,0.0219948068261146,-3.0462493896484375,-1.2863144874572754,jumping
1783088521809756000,1.785755859375,-1.831627398383617,4.225806846708059,-24.722638570976255,0.4185810089111328,-2.8832292556762695,-1.1680198907852173,jumping
1783088521819799800,1.7957998046875,-3.0753710294321177,5.186435839182138,-22.04952644593715,0.7644899487495422,-2.3293142318725586,-0.8087862730026245,jumping
1783088521829844700,1.8058447265625,-4.1011195598095656,5.1233694344162934,-19.015317740237712,0.7710989117622375,-1.395385980606079,-0.4622740447521209,jumping
1783088521839889400,1.815889404296875,-4.2202281697928905,2.9442361738294363,-14.948015694355965,0.5285110473632812,-0.5226984024047852,-0.342637151479721,jumping
1783088521849933300,1.825933349609375,-3.815618026098609,1.1608975900575518,-10.647994441401956,0.2565098702907562,0.1141901761293411,-0.3532477021217346,jumping
1783088521859978200,1.835978271484375,-3.098179365828633,0.4273445380717515,-7.267413261443376,0.0039916145615279,0.4565358161926269,-0.3334332406520843,jumping
1783088521870022400,1.8460224609375,-1.4599857505723832,0.4038052570521831,-5.099569456633925,-0.1637089997529983,0.5156258344650269,-0.2731835544109344,jumping
1783088521880066300,1.85606640625,1.0761376782692968,0.5711097426667809,-4.1370162180989976,-0.0927432253956794,0.0534741841256618,-0.2763383388519287,jumping
1783088521890111200,1.866111328125,2.1740470433637498,1.2772022485360504,-4.53724303214252,0.3014835119247436,-0.556389331817627,-0.3202194571495056,jumping
1783088521900155400,1.8761552734375,1.0204217823967336,1.67152071531862,-3.655979837328195,0.6659536361694336,-0.9914941787719728,-0.4571751654148102,jumping
1783088521910199000,1.886198974609375,-0.3180523887038231,1.7550939015403388,0.4228443040430545,0.8043272495269775,-1.2279640436172483,-0.5517128109931946,jumping
1783088521920243200,1.8962431640625,0.179805070747435,2.362799244546145,5.961710017827153,0.6864706873893738,-1.4513763189315796,-0.574985682964325,jumping
1783088521930288400,1.906288330078125,1.9931030317142604,3.457219013959169,9.772998490288852,0.4407936036586761,-1.6666462421417236,-0.440790981054306,jumping
1783088521940332300,1.916332275390625,3.415439727371931,3.677943539594114,11.429172875654697,0.3187422752380371,-1.739444613456726,-0.2357449233531952,jumping
1783088521950376200,1.926376220703125,4.328343384335935,3.06229176762849,12.870657631635666,0.3168365657329559,-1.734934687614441,-0.0189672410488128,jumping
1783088521960421400,1.93642138671875,5.047127906256914,2.3770988419249655,14.504396313309668,0.3017068803310394,-1.8109172582626345,0.2049902230501175,jumping
1783088521970465300,1.94646533203125,5.788561190098524,1.0978738553896543,15.449009406006336,0.2749825119972229,-1.984107494354248,0.3666054010391235,jumping
1783088521980509200,1.95650927734375,6.4091352208971974,-0.133926970539242,15.311628057229518,0.2748280465602875,-2.151151418685913,0.4314501881599426,jumping
1783088521990554400,1.966554443359375,6.663302289667725,-0.6341225175492465,14.099903658515212,0.2851783335208893,-2.1359851360321045,0.472299724817276,jumping
1783088522000598300,1.976598388671875,6.723091280198097,-0.6289942147500812,12.638630498480795,0.2903565764427185,-1.9008337259292605,0.5370491743087769,jumping
1783088522010642200,1.98664208984375,6.487738217490911,-0.5842145773030817,11.473643301022053,0.2880497872829437,-1.5216844081878662,0.607468843460083,jumping
1783088522020686300,1.996686279296875,5.310512300705909,-0.9543260929375886,10.818799920874833,0.321576327085495,-1.0583689212799072,0.6273051500320435,jumping
1783088522030731300,2.006731201171875,3.5363369743376967,-1.9473240079663692,10.25833578312397,0.3505696356296539,-0.4774392545223236,0.5253984332084656,jumping
1783088522040775400,2.016775390625,2.227007356917858,-2.792375048801303,9.225037860280274,0.3273109197616577,0.2154321670532226,0.2852199375629425,jumping
1783088522050819300,2.0268193359375,2.443100715620816,-2.9958295829445123,7.613202967378497,0.1663725972175598,0.9480375051498412,0.0213959887623786,jumping
1783088522060864300,2.0368642578125,2.760593424615264,-2.2947904149420557,6.017644671016932,-0.0334675386548042,1.6737957000732422,-0.1605831384658813,jumping
1783088522070908400,2.046908447265625,2.211870578062534,-2.4799744022488595,4.649073760077357,-0.1607891619205474,2.4386372566223145,-0.3489835262298584,jumping
1783088522080952000,2.0569521484375,1.5209133897438645,-3.219515296472609,4.203161299657822,-0.175656259059906,3.1392807960510254,-0.5481003522872925,jumping
1783088522090997200,2.066997314453125,1.4252476146683095,-3.589019639994204,5.085764218643307,-0.1462471187114715,3.4821953773498535,-0.7145696878433228,jumping
1783088522101041400,2.07704150390625,1.6932459326535465,-4.016758438080549,6.650847297242284,-0.1296849250793457,3.462825059890747,-0.8767215609550476,jumping
1783088522111085000,2.0870849609375,1.9671049593657255,-3.5020328459367156,8.177035120257734,-0.144948273897171,3.21624493598938,-0.9429285526275636,jumping
1783088522121130200,2.097130126953125,2.3093526087798177,-2.8781121350586414,9.564662029322982,-0.2583363652229309,2.6142919063568115,-0.8918405771255493,jumping
1783088522131174400,2.10717431640625,2.6839494531348347,-2.617430862088501,9.732095986536144,-0.289696604013443,1.9510886669158936,-0.7353598475456238,jumping
1783088522141218300,2.11721826171875,2.6475729023739696,-1.970677703285962,9.342685165539384,-0.209791362285614,1.2746531963348389,-0.5446063876152039,jumping
1783088522151263200,2.12726318359375,2.523925187656283,-1.3414569863036274,8.405582594603299,-0.0094297900795936,0.8083095550537109,-0.3044310510158539,jumping
1783088522161307400,2.137307373046875,2.1264370047964154,-0.7395838565826416,7.781665098595619,0.3038221597671509,0.6009646654129028,-0.0281613618135452,jumping
1783088522171351300,2.147351318359375,2.1266109000585973,-0.50310865797773,8.446802493742108,0.604356050491333,0.4626801311969757,0.2076387703418731,jumping
1783088522181395200,2.157395263671875,2.874345476001501,-0.1667455365575849,9.729054134622215,0.723757266998291,0.2322487980127334,0.4397963881492615,jumping
1783088522191440400,2.1674404296875,3.603305062717199,0.6149754801392555,10.50423712785244,0.6352184414863586,-0.0770762264728546,0.7413091659545898,jumping
1783088522201484300,2.177484375,3.5001360724046826,1.1763671079985796,11.172139896059036,0.4282782971858978,-0.4540967345237732,1.016918659210205,jumping
1783088522211528200,2.187528076171875,2.1862923385612665,1.1429856474004685,11.08455045993328,0.2047608941793441,-0.7315162420272827,1.2148864269256592,jumping
1783088522221573400,2.197573486328125,0.3174615832038223,1.3921410254888236,10.733044714438917,-0.0446955412626266,-0.9412614703178406,1.3138766288757324,jumping
1783088522231617300,2.2076171875,0.07567249609977,1.6848311555296185,10.466203457534313,-0.2726213634014129,-1.2671860456466677,1.4372042417526243,jumping
1783088522241661200,2.2176611328125,0.4553507353723049,1.8730756994508209,8.820885981747507,-0.4438841938972473,-1.5729528665542605,1.5376291275024414,jumping
1783088522251706400,2.227706298828125,1.647696626008302,2.1918689696498213,6.25840105407238,-0.5377698540687561,-1.69938325881958,1.642757534980774,jumping
1783088522261750300,2.237750244140625,3.973909476435184,2.73993642103374,3.8414521400570862,-0.4773501455783844,-1.5820494890213013,1.7007087469100952,jumping
1783088522271794400,2.24779443359375,2.9114409886866808,3.1579671873152253,0.8722060281336307,-0.3765948414802551,-0.9800183176994324,1.7941253185272217,jumping
1783088522281839400,2.25783935546875,-2.323997074073553,2.5825734837189316,-2.2132699234664437,-0.4569184482097626,0.0809123441576957,1.816317677497864,jumping
1783088522291883300,2.26788330078125,-3.367434405876696,2.2529490229040383,-4.304688660243153,-0.6343794465065002,0.9443699717521667,1.877311110496521,jumping
1783088522301927400,2.277927490234375,-2.2358184398829937,3.881756385655701,-11.251118155705928,-0.8152639865875244,2.187436580657959,1.9394475221633911,jumping
1783088522311971000,2.28797119140625,-3.8969071930363777,2.58679986924231,-22.77144137483835,-1.178991436958313,4.139540672302246,1.8087860345840456,jumping
1783088522322016300,2.298016357421875,-3.7507162225991486,-3.9407363978907464,-24.369180522370335,-1.1211731433868408,4.766955375671387,1.177245020866394,jumping
1783088522332060400,2.308060302734375,-2.0247800264820457,-4.025881363473832,-18.175930278122426,-0.2656625807285309,3.873162269592285,0.6154112815856934,jumping
1783088522342104300,2.318104248046875,-1.3962946380369363,-0.5009963419988751,-13.991806856411694,0.4009354412555694,2.144122362136841,0.3781372010707855,jumping
1783088522352149200,2.328149169921875,-2.1739827459558843,-1.3925386465042828,-15.349516766119002,0.871605634689331,1.3641103506088257,0.0317333117127418,jumping
1783088522362193400,2.338193359375,-2.1061054337769747,-1.845621144683659,-14.597412450659274,1.1986480951309204,0.886574923992157,-0.3743896782398224,jumping
1783088522372237300,2.3482373046875,-0.6789741242539137,-0.9257894420221447,-12.898835093849897,1.070637822151184,0.1707024872303009,-0.6243379712104797,jumping
1783088522382282200,2.3582822265625,-0.485146227242425,0.3927569165542721,-15.521636250799894,0.7312935590744019,-0.3944469094276428,-0.6275497078895569,jumping
1783088522392326400,2.368326416015625,0.4905301487704738,2.3048092662617563,-17.40791060065031,0.4088413417339325,-0.8628135323524475,-0.4963103532791137,jumping
1783088522402370300,2.378370361328125,0.8880087966170161,3.95194781999588,-19.019523959755897,0.0730151236057281,-1.0675698518753052,-0.3633624315261841,jumping
1783088522412415200,2.388415283203125,-0.4236537937950342,5.137530646237731,-21.404268055737017,-0.1963919103145599,-0.8406705856323242,-0.1794421821832656,jumping
1783088522422459400,2.39845947265625,-1.474440392382443,6.327966757729649,-20.283999120926858,-0.2367185652256012,-0.6156529188156128,0.0696640461683273,jumping
1783088522432503300,2.40850341796875,-2.706750190746784,5.185922628962993,-18.90803225451708,-0.3390556573867798,-0.2349370718002319,0.0644004791975021,jumping
1783088522442547200,2.418547119140625,-3.449224215812981,3.4753725102871655,-16.44093837662935,-0.3366865217685699,0.0598298460245132,-0.081417441368103,jumping
1783088522452592400,2.42859228515625,-2.819366223840415,2.831812156176567,-13.537484879565238,-0.0308822803199291,-0.1505995392799377,-0.2579622864723205,jumping
1783088522462636300,2.43863623046875,-2.443606473185867,2.565388540162146,-13.637984066146611,0.4331895112991333,-0.5779253244400024,-0.4522939622402191,jumping
1783088522472680400,2.448680419921875,-2.5728601912170648,2.789907197383046,-14.13855692203641,0.7868680953979492,-0.947740375995636,-0.6654276251792908,jumping
1783088522482725400,2.458725341796875,-2.033536602780968,2.783468104246259,-12.976921373093129,0.8425196409225464,-1.1006078720092771,-0.7970631718635559,jumping
1783088522492769300,2.468769287109375,-1.036607120456919,2.9193484008103607,-9.717551328355071,0.7378654479980469,-1.2740230560302734,-0.7984887361526489,jumping
1783088522502813400,2.4788134765625,-0.2134669557221233,2.908726469030976,-5.669233968928456,0.630337655544281,-1.5003315210342407,-0.7893969416618347,jumping
1783088522512858400,2.4888583984375,0.7475168415389954,2.554207513195276,-1.414506732684374,0.4664310812950134,-1.7571141719818115,-0.7691139578819275,jumping
1783088522522902300,2.49890234375,2.2370335147611797,2.1759205821506677,2.9469734898388382,0.2249129861593246,-1.9391534328460691,-0.7089941501617432,jumping
1783088522532946400,2.508946533203125,3.8810318707734344,1.6701580486632883,5.9231783348590135,-0.0575092695653438,-1.9824398756027224,-0.6501595377922058,jumping
1783088522542991400,2.518991455078125,4.45439932923913,1.651110379974544,8.75269799618423,-0.1730987131595611,-1.9930925369262695,-0.512291669845581,jumping
1783088522553035300,2.52903515625,4.6198710464686155,1.253592678759247,10.618341645938155,-0.1926214396953582,-2.0195369720458984,-0.4076248407363891,jumping
1783088522563079400,2.539079345703125,4.347980104959011,0.7635521766692399,11.604744546616075,-0.2726355791091919,-2.0571279525756836,-0.3318259418010711,jumping
1783088522573123300,2.549123291015625,4.201723375809192,0.9802190974764524,12.4235848952651,-0.2385113686323166,-2.121363878250122,-0.2045579254627227,jumping
1783088522583168300,2.559168212890625,4.636360408976674,1.3781804508060216,13.491317002630232,0.0925240889191627,-2.310345411300659,-0.0056730480864644,jumping
1783088522593212400,2.56921240234375,5.346275688004494,1.5007294105015694,15.034590400481225,0.5607720613479614,-2.588435411453247,0.1883167028427124,jumping
1783088522603256300,2.57925634765625,5.507768564730882,0.8789335828229784,14.992507162511348,0.863494873046875,-2.57993221282959,0.3265978991985321,jumping
1783088522613301200,2.58930126953125,5.018849906277656,0.2171913830727338,13.85747788094282,0.8062539100646973,-2.1232080459594727,0.4100916981697082,jumping
1783088522623345400,2.599345458984375,4.411058492423594,-0.2660055367328226,12.677537444502114,0.4856191873550415,-1.3318675756454468,0.4216897487640381,jumping
1783088522633389300,2.609389404296875,3.9100396463319655,-0.4464018513716757,11.81361876772046,0.1170550063252449,-0.5113441944122314,0.4004220366477966,jumping
1783088522643434200,2.619434326171875,3.417970414893329,-0.91530326545164,10.768958908385038,-0.102257639169693,0.1453449875116348,0.2991659641265869,jumping
1783088522653478400,2.629478515625,3.1306682615011927,-1.4346322597377,8.987792115694283,-0.1193362548947334,0.790477454662323,0.114143893122673,jumping
1783088522663522300,2.639522216796875,2.778910879333317,-1.0220803632587194,7.4062512387692925,-0.0721703395247459,1.489237666130066,-0.0338937677443027,jumping
1783088522673567200,2.649567138671875,2.5164497372090815,-1.2649423402912914,6.887499752110243,-0.051762867718935,2.1226112842559814,-0.2040394395589828,jumping
1783088522683611400,2.659611328125,2.5712363894075154,-1.9652467642784115,7.059844862240553,-0.0558468252420425,2.5603187084198,-0.401930958032608,jumping
1783088522693655300,2.6696552734375,2.350024664777518,-2.414587883972376,7.240190907996893,-0.0559735894203186,2.765624523162842,-0.5763389468193054,jumping
1783088522703699500,2.679699462890625,1.594929058547318,-2.8555595269888636,6.965898750564455,0.0064131836406886,2.91416597366333,-0.7176129221916199,jumping
1783088522713744400,2.689744384765625,1.673220504973829,-3.779371239197254,6.880671367394924,0.1234849244356155,2.758582592010498,-0.912310004234314,jumping
1783088522723788300,2.699788330078125,2.1818045256227254,-3.4772529172062874,8.846648784035443,0.3004663586616516,1.9849646091461184,-0.9822550415992736,jumping
1783088522733832400,2.70983251953125,1.964489223909378,-3.577144493283331,9.38045638552904,0.2835396826267242,0.9136547446250916,-1.0315431356430054,jumping
1783088522743877000,2.719877197265625,2.2667118830576536,-3.975465765966475,8.246993038102984,0.241003930568695,0.1933312565088272,-1.100544810295105,jumping
1783088522753921300,2.72992138671875,2.1206777106173336,-3.4401410379081963,8.250908750241994,0.275173544883728,-0.3649292290210724,-1.1075977087020874,jumping
1783088522763965400,2.73996533203125,2.166276701623201,-2.4165052619010208,8.65101632182002,0.2631456553936004,-0.6959715485572815,-1.03066885471344,jumping
1783088522774010000,2.750010009765625,2.3683652081102133,-1.2811821119524538,7.026420731544494,0.2045231163501739,-0.5637235641479492,-0.9147033095359802,jumping
1783088522784054300,2.76005419921875,1.7715277344688771,-0.2425898820929229,8.754839099866151,0.5777619481086731,-0.2939024865627289,-0.680780291557312,jumping
1783088522794098400,2.770098388671875,2.6783471030831336,1.425052238226682,9.28908801538646,0.7429665327072144,-0.2701589465141296,-0.4611308574676513,jumping
1783088522804143000,2.78014306640625,3.6094770293504,1.862108899756521,9.55464741578698,0.6146487593650818,-0.123452328145504,-0.2087071239948272,jumping
1783088522814187300,2.790187255859375,3.80366104632318,1.772568183432519,10.55089600317478,0.2579175233840942,-0.0651620775461196,0.0128966365009546,jumping
1783088522824231400,2.8002314453125,3.3654747962415215,1.5802904384724794,11.187243941688536,-0.1558255702257156,-0.1077500209212303,0.1786254197359085,jumping
1783088522834275300,2.810275390625,2.2256329998247324,1.5390204165816306,10.652972229814528,-0.4141939580440521,-0.0898947119712829,0.3478161096572876,jumping
1783088522844320300,2.8203203125,0.8737842372357845,2.479185297697782,9.615762101963162,-0.44028440117836,-0.071533016860485,0.5657321810722351,jumping
1783088522854364400,2.830364501953125,0.9778323484703898,3.014644465790689,8.612026958212256,-0.3495725095272064,-0.1258468031883239,0.7330552339553833,jumping
1783088522864408300,2.840408203125,0.510673978665471,3.429740055403113,6.96331691737771,-0.3307364881038666,-0.060711745172739,0.9297019839286804,jumping
1783088522874453200,2.850453369140625,-0.0075556760765612,3.6349066541612145,5.590692931655049,-0.5268992185592651,-0.0071052066050469,1.0723212957382202,jumping
1783088522884497200,2.8604970703125,1.6577100705005228,3.328218540036678,3.4941473533838985,-0.7962433695793152,-0.0775783061981201,1.1280977725982666,jumping
1783088522894541300,2.870541259765625,2.5177292556256052,4.521067557889223,-0.9064929131388664,-0.9640972018241882,-0.0699827596545219,1.373709201812744,jumping
1783088522904586200,2.880586181640625,1.3695792111992835,6.377828813007474,-6.749025931921601,-1.107501983642578,0.2473304718732834,1.8399922847747805,jumping
1783088522914630100,2.890630126953125,-0.1774856878891587,5.5964288449585435,-13.046514549279213,-1.201054334640503,1.149042725563049,2.1591575145721436,jumping
1783088522924674300,2.90067431640625,-4.057648082351684,1.1222278137929738,-20.118677625823015,-1.466929912567139,2.742870569229126,1.9426281452178955,jumping
1783088522934719200,2.91071923828125,-4.359069069728255,-3.889589855760336,-21.455521273112296,-1.7471790313720703,3.7811875343322754,1.4624923467636108,jumping
1783088522944763100,2.92076318359375,-2.6913021539852022,-3.04515358582288,-19.83758572524786,-1.6421940326690674,3.663416147232056,1.2983150482177734,jumping
1783088522954807300,2.930807373046875,-3.210352331329882,-2.0774515862226486,-17.999746028220653,-0.9463078379631042,2.906810998916626,1.1193605661392212,jumping
1783088522964851500,2.9408515625,-5.019050981807708,-4.617620052671432,-14.846778841149806,-0.1480388790369033,1.764262080192566,0.4269658625125885,jumping
1783088522974896000,2.950896240234375,-5.406480273598432,-4.554695102202892,-12.809409089946746,0.1831688731908798,0.6060341000556946,-0.2918745577335357,jumping
1783088522984940300,2.960940185546875,-4.1261628156512975,-1.2824307968392967,-14.102544528412816,-0.0017711479449644,-0.1894164085388183,-0.7211662530899048,jumping
1783088522994984400,2.970984375,-2.978819119171798,-0.9798267371580004,-18.038462420105933,-0.1333131343126297,-0.5708616375923157,-1.079272747039795,jumping
1783088523005029000,2.981029052734375,-2.0057047391340137,-0.3893289879322051,-21.484031912803648,0.0574996843934059,-0.7663834691047668,-1.2366673946380615,jumping
1783088523015073300,2.9910732421875,-0.9483122394755482,-0.1780544276878237,-22.806101184809208,0.3945198953151703,-0.6894276142120361,-1.3080931901931765,jumping
1783088523025117400,3.001117431640625,-2.308116783374548,-0.970789444221556,-23.91220130901337,0.511579155921936,-0.1042192876338958,-1.385745882987976,jumping
1783088523035162000,3.011162109375,-2.997990852631628,-1.6288246061474083,-22.849526485037803,0.3661026954650879,0.5559737086296082,-1.401654839515686,jumping
1783088523045206300,3.021206298828125,-2.973114185528457,-1.2997630399122833,-20.21058784775734,0.2205433547496795,0.9931499361991882,-1.3873600959777832,jumping
1783088523055250200,3.031250244140625,-3.4762098378941415,-0.7566136095777154,-17.42809531054497,0.2048667669296264,1.1384310722351074,-1.3400763273239136,jumping
1783088523065294300,3.04129443359375,-3.691545071706176,-0.9272402253523468,-14.632469735515118,0.2345098853111267,1.146166205406189,-1.3138399124145508,jumping
1783088523075339300,3.05133935546875,-3.167765235491097,-0.5211132473543286,-12.598242373991011,0.1870786845684051,1.1340930461883545,-1.2969611883163452,jumping
1783088523085383200,3.061383056640625,-2.067960558169335,0.171196232356131,-11.082520999932289,0.1706975698471069,1.0950868129730225,-1.3266245126724243,jumping
1783088523095427300,3.07142724609375,-1.1732722107231617,1.7570993961438537,-9.300361104550957,0.2988132238388061,0.9736307263374328,-1.3135745525360107,jumping
1783088523105472300,3.08147216796875,-0.4913851216319948,2.9962261810466644,-6.914526290723681,0.5597957968711853,0.686481773853302,-1.278312087059021,jumping
1783088523115516200,3.09151611328125,0.5766074998328462,3.4464982979804275,-3.892743351355195,0.8039565682411194,0.1626427471637725,-1.2434518337249756,jumping
1783088523125560300,3.101560302734375,1.3456620367780328,3.6083629306286578,-1.3226648998111483,0.9500772953033448,-0.3003512620925903,-1.17121684551239,jumping
1783088523135605200,3.111605224609375,1.8673166975326836,3.1629464370325207,1.7213345475405453,0.8993121385574341,-0.6891252398490906,-1.123448371887207,jumping
1783088523145649200,3.121649169921875,2.3472212977945803,2.714338453918695,4.8860360115468495,0.7199429273605347,-0.9938244223594666,-1.0223132371902466,jumping
1783088523155693300,3.131693359375,2.7415254437908527,2.708643457147479,7.637227986088394,0.4741398990154266,-1.165621042251587,-0.8385918140411377,jumping
1783088523165738200,3.14173828125,2.401887246222794,2.8458240226551887,9.902088396060464,0.1612046509981155,-1.1750396490097046,-0.5885154008865356,jumping
1783088523175782100,3.1517822265625,1.8162687934711577,2.565395846685767,12.05800970788598,-0.2101681232452392,-1.152966856956482,-0.3406552672386169,jumping
1783088523185826300,3.161826416015625,1.3287031570620833,2.084873114525527,13.506872299158571,-0.5736254453659058,-1.1286002397537231,-0.1700741946697235,jumping
1783088523195870500,3.171870361328125,1.3065562071837484,1.6500839595362544,13.94311969013214,-0.7921846508979797,-1.1768343448638916,-0.065198116004467,jumping
1783088523205915100,3.1819150390625,1.4475724053315815,1.8641973964683711,13.156290098249912,-0.6424577236175537,-1.1929017305374146,0.0569975674152374,jumping
1783088523215959300,3.191959228515625,1.355861651492119,2.1767418354056773,12.022602878940106,-0.2252887934446334,-1.2000114917755127,0.1807181388139724,jumping
1783088523226003200,3.202003173828125,1.4078475670561197,1.7097167365916073,11.224454605185985,0.126327559351921,-1.0636091232299805,0.2417002618312835,jumping
1783088523236048100,3.212048095703125,1.5203388047263025,0.7747092382386326,11.114795960593224,0.1731913238763809,-0.8691531419754028,0.232758030295372,jumping
1783088523246092300,3.22209228515625,1.5505303832419215,-0.4134339400105178,11.144431220400334,-0.0348111316561698,-0.6138291954994202,0.1818876564502716,jumping
1783088523256136200,3.23213623046875,1.4832826011382043,-1.3224287529677152,10.889368079572916,-0.2522351443767547,-0.3142702579498291,0.1290696263313293,jumping
1783088523266181000,3.24218115234375,1.1693261034458875,-1.824280981143564,10.42195047430992,-0.3878720700740814,0.0043023778125643,0.1041935756802558,jumping
1783088523276225300,3.252225341796875,1.0634988537095489,-2.4847487770438192,9.617903205645083,-0.396100640296936,0.3505880534648895,0.0819277241826057,jumping
1783088523286269200,3.262269287109375,1.150203177563846,-3.0906425405830142,8.597992003118991,-0.3580784201622009,0.6828213930130005,0.0505767315626144,jumping
1783088523296314000,3.272314208984375,0.907243439245224,-3.6631834850966927,7.054195458176731,-0.3314728736877441,1.1406370401382446,0.0046556233428418,jumping
1783088523306358300,3.282358154296875,0.5800374377489089,-4.177440582945943,6.180673671269417,-0.3062122762203216,1.6136126518249512,-0.1170819923281669,jumping
1783088523316402200,3.292402099609375,0.8930275746271014,-4.17447150400728,6.488174270820617,-0.2524648904800415,1.9254575967788696,-0.2550811469554901,jumping
1783088523326446300,3.3024462890625,0.9419164009585976,-3.586725099316239,6.665822163534164,-0.2501684427261352,2.0616085529327393,-0.3368915915489197,jumping
1783088523336491300,3.3124912109375,0.5152207552496344,-3.2163790442734954,7.12337187025547,-0.2880539000034332,1.9983949661254885,-0.361076146364212,jumping
1783088523346535200,3.32253515625,0.2605807352051139,-3.661442778909206,8.215619994717835,-0.2888616323471069,1.6262338161468506,-0.4233259558677673,jumping
1783088523356579300,3.332579345703125,0.0761554573111236,-3.889475873991847,9.036445379704237,-0.262837678194046,1.105668544769287,-0.5290940999984741,jumping
1783088523366624300,3.342624267578125,-0.0136797849800437,-3.81549498424083,9.296661665511133,-0.1929818838834762,0.6282036304473877,-0.606433093547821,jumping
1783088523376668200,3.352668212890625,0.217658269932121,-3.5248324145048855,9.691993693250415,-0.0809390395879745,0.1935647279024124,-0.6300748586654663,jumping
1783088523386712300,3.36271240234375,0.7468794204182923,-2.975632305829227,10.036930581748486,0.0139456605538725,-0.2186404168605804,-0.6054112911224365,jumping
1783088523396757200,3.37275732421875,1.3061840128704905,-2.222243795777857,9.898871187579632,0.036081176251173,-0.5595569610595703,-0.5223307013511658,jumping
1783088523406801200,3.38280126953125,2.0205217845156787,-1.738535565449297,9.620309097743034,0.0449540317058563,-0.8803101778030396,-0.4181235730648041,jumping
1783088523416845300,3.39284521484375,2.4379313501589,-1.2844777924969792,8.975216711759566,0.1293603330850601,-1.0661731958389282,-0.2980868518352508,jumping
1783088523426890500,3.402890380859375,2.2674562716841695,-0.8176888405263424,8.343518644878268,0.2690490186214447,-1.0965665578842163,-0.1473260968923568,jumping
1783088523436934100,3.41293408203125,1.8626655107259749,-0.5720414705589413,8.272247306346893,0.4007402658462524,-1.024991750717163,-0.011367374099791,jumping
1783088523446978300,3.422978271484375,1.2848165229320525,-0.5208937593847512,8.729648544508219,0.4045754671096802,-0.9285086989402772,0.0923861861228942,jumping
1783088523457022200,3.433022216796875,1.0797621523767709,0.0655073681771755,8.917112313315272,0.2748676836490631,-0.8448380827903748,0.1250659674406051,jumping
1783088523467067100,3.443067138671875,1.1258192624136805,1.7370738223336637,8.366572188207506,0.0222799107432365,-0.7671539187431335,0.276995837688446,jumping
1783088523477111300,3.453111328125,0.6328419762194156,4.069743593814969,7.79212511781156,-0.3123945295810699,-0.7950554490089417,0.6412422060966492,jumping
1783088523487155200,3.4631552734375,1.420598473688215,5.376590162247419,7.696926375725865,-0.6029424667358398,-1.0706177949905396,0.978457510471344,jumping
1783088523497200000,3.4732001953125,2.354752570082247,6.457066015851497,5.408955723801255,-0.9432854652404784,-1.553916335105896,1.5440422296524048,jumping
1783088523507244300,3.483244384765625,1.0752474514313042,6.1880304637730115,1.2406576477319002,-0.9209282398223876,-1.9129106998443604,2.095115423202514,jumping
1783088523517288200,3.4932880859375,-1.1033435189723968,3.5709985378742215,-3.639134500989318,-0.6187916994094849,-1.73479425907135,2.252690553665161,jumping
1783088523527333400,3.50333349609375,-2.9946377428114412,1.5207137755185365,-8.505663263511657,-0.4785049259662628,-1.0727667808532717,2.13130521774292,jumping
1783088523537377300,3.513377197265625,-5.990003799897432,-0.6493681636065244,-14.947122544908522,-0.6451761722564697,0.4004587531089782,1.83423376083374,jumping
1783088523547421200,3.523421142578125,-7.75818193167746,-4.215053397503495,-23.12941660860777,-1.1784453392028809,2.454679012298584,1.280242085456848,jumping
1783088523557466400,3.53346630859375,-3.8429672207951544,-3.8975481212884184,-24.70045713430643,-1.5353413820266724,3.3564257621765137,0.8033626079559326,jumping
1783088523567510300,3.54351025390625,-0.3630860009118914,-1.6205626814976333,-19.231682024836537,-0.952120006084442,2.857581377029419,0.6071906685829163,jumping
1783088523577554200,3.55355419921875,-2.3253066953673955,0.900255187793076,-15.575647242450714,0.0516763292253017,2.009246826171875,0.6574528217315674,jumping
1783088523587598300,3.563598388671875,-3.3675191615507005,0.4746960718333721,-11.407108343362808,0.7917131185531616,0.8776425123214722,0.5171966552734375,jumping
1783088523597643300,3.573643310546875,-3.257954332721233,-0.391828403532505,-10.6303488945961,0.91526061296463,-0.0426300838589668,0.2072811275720596,jumping
1783088523607687200,3.583687255859375,-3.4050489739999175,-0.4272951459720731,-12.889627705043551,0.6484150886535645,-0.5269557237625122,-0.0978662744164466,jumping
1783088523617731300,3.5937314453125,-2.332517941920459,-0.7696347114533185,-14.567438168156146,0.3601503670215606,-0.8407248258590698,-0.3653042316436767,jumping
1783088523627776500,3.603776611328125,-2.4716227534890174,-0.5765262147575616,-17.575729173266886,0.23162542283535,-0.8192251324653625,-0.5759546756744385,jumping
1783088523637820200,3.613820068359375,-2.064375539289415,0.498407786810398,-18.746263483458755,0.2600194811820984,-0.697210967540741,-0.6135292649269104,jumping
1783088523647864300,3.6238642578125,-1.5452110879153012,2.114732684607804,-20.61198604366779,0.3268999755382538,-0.2209416627883911,-0.5044384598731995,jumping
1783088523657909500,3.633909423828125,-1.6906603000745175,2.654670167158544,-20.78645179921389,0.3145792484283447,0.389138787984848,-0.4343554377555847,jumping
1783088523667953200,3.643953125,-2.147416226069629,1.4502537533700466,-18.521340629351137,0.2658450007438659,0.8906182050704956,-0.5093425512313843,jumping
1783088523677997300,3.653997314453125,-2.67416689478904,0.4811193828791379,-15.911024859964847,0.2177703976631164,1.2917304039001465,-0.6262425184249878,jumping
1783088523688041200,3.664041259765625,-2.6001687616422773,0.6037573360323906,-13.068811721283195,0.2635032832622528,1.4607809782028198,-0.6660597324371338,jumping
1783088523698086100,3.674086181640625,-2.275786293134093,0.7251306760773062,-11.314454609584809,0.5859609246253967,1.5534075498580933,-0.7393025755882263,jumping
1783088523708130300,3.68413037109375,-2.010079008695483,1.2371966936230658,-10.365911191701889,0.9453774094581604,1.6634563207626345,-0.9026483297348022,jumping
1783088523718174200,3.69417431640625,-1.3190830958016215,2.293075866109133,-8.411642333033681,1.072134494781494,1.5645265579223633,-0.9964169263839722,jumping
1783088523728219400,3.704219482421875,-0.004465601106733,2.9940844928428527,-6.313037484145164,0.960041880607605,1.239713430404663,-0.975069522857666,jumping
1783088523738263300,3.71426318359375,1.332291098551452,3.6166073196217416,-4.424101806131005,0.7782211899757385,0.792634904384613,-0.8134563565254211,jumping
1783088523748307200,3.72430712890625,1.8351595180325209,3.3732056827545165,-1.8660048842817545,0.7988260984420776,0.3009389042854309,-0.6154173016548157,jumping
1783088523758352400,3.734352294921875,2.237813120831549,2.764477864833176,1.012073348507285,0.9234970808029176,-0.2309093475341797,-0.4238400161266327,jumping
1783088523768396300,3.744396240234375,2.7152526461541653,1.9093859069772063,2.5030045647025108,0.9647180438041688,-0.5159048438072205,-0.3235549628734588,jumping
1783088523778440200,3.754440185546875,2.8366718711674213,1.3875116121225055,4.385512840017676,0.934146523475647,-0.7198846936225891,-0.2811592519283294,jumping
1783088523788485400,3.7644853515625,2.130119931092858,1.623813061595708,7.525191506448388,0.8854162693023682,-1.0534416437149048,-0.1755662560462951,jumping
1783088523798529300,3.774529296875,0.6824193693369627,1.6073521945297715,10.328070413607358,0.7487360239028931,-1.3720678091049194,-0.0531201548874378,jumping
1783088523808573200,3.7845732421875,-0.7061169827234,0.5700331994764507,13.599331971669196,0.6060670018196106,-1.6914478540420532,-0.0042793774046003,jumping
1783088523818617300,3.794617431640625,-1.3580848804995416,-0.3201820942088961,15.493372279345987,0.3859112858772278,-1.9983317852020264,-0.0481027141213417,jumping
1783088523828662300,3.804662353515625,-0.4259405164927244,-0.0553711740881204,15.65843892290592,0.1803629100322723,-2.1993346214294434,0.0262516774237155,jumping
1783088523838706200,3.8147060546875,0.9970132881499826,0.7040282668158412,14.8296687163949,0.0537130907177925,-2.2361555099487305,0.1844042837619781,jumping
1783088523848750600,3.82475048828125,2.213217024235427,0.7010172484315932,13.499500309085844,0.0346650965511798,-2.091076135635376,0.3412040472030639,jumping
1783088523858795500,3.83479541015625,2.464769818854332,0.1858566258713603,12.323837403833863,0.1709367334842682,-1.7661346197128296,0.4371466040611267,jumping
1783088523868839400,3.84483935546875,2.597256381326914,-0.5500245768010616,11.6733720926404,0.2816456854343414,-1.2638880014419556,0.3773799240589142,jumping
1783088523878883600,3.854883544921875,2.101088628528267,-0.1295567926310002,11.413449236822128,0.159722164273262,-0.647225022315979,0.4021476209163666,jumping
1783088523888928800,3.8649287109375,1.1506792706429958,-0.2093875774540007,11.330589751827716,-0.119958221912384,-0.0848333165049552,0.4557000398635864,jumping
1783088523898972400,3.874972412109375,0.6402056368552148,-1.269708970171213,10.355401488125324,-0.4167434275150299,0.3867640495300293,0.3987444639205932,jumping
1783088523909016600,3.8850166015625,1.1700472573272884,-1.651434058970958,8.194179731804132,-0.6469369530677795,0.8029093742370605,0.3104859888553619,jumping
1783088523919061500,3.8950615234375,1.90538777725175,-1.7646290609963238,5.985342822349071,-0.6437230110168457,1.1715714931488037,0.2305909544229507,jumping
1783088523929105400,3.90510546875,1.683891536591947,-1.383682409223169,4.028457643702626,-0.4116109609603882,1.6763256788253784,0.1582230180501938,jumping
1783088523939149600,3.915149658203125,1.3800545741148291,-1.9049398873537775,3.555054534289241,0.0166689828038215,2.0733673572540283,0.0733482614159584,jumping
1783088523949193500,3.925193359375,1.0820677259054037,-2.127806101192534,4.931640409380197,0.3369252979755401,2.162344217300415,-0.0241561848670244,jumping
1783088523959238700,3.93523876953125,0.9649991703823207,-2.567428813818097,7.591429526987671,0.3442641198635101,1.8170989751815796,-0.1093411743640899,jumping
1783088523969282600,3.945282470703125,0.8233057305600494,-3.1252158413141964,9.860051919841766,0.1581986248493194,1.1960186958312988,-0.1729888468980789,jumping
1783088523979326500,3.955326416015625,0.6852040316194296,-3.159760792733729,10.88001689838171,-0.0132217360660433,0.4445920884609222,-0.1979625225067138,jumping
1783088523989371600,3.96537158203125,0.2662320389650762,-2.6553514274209737,10.395442406612634,0.0832307636737823,-0.157288447022438,-0.1679553389549255,jumping
1783088523999415600,3.97541552734375,0.0837343681327998,-1.8591018268950283,9.814529355072974,0.3522497415542602,-0.5474455952644348,-0.0862847194075584,jumping
1783088524011342600,3.987342529296875,0.8155150766838342,-1.4226093751192093,10.45110058094859,0.508949875831604,-0.9632044434547424,0.037247609347105,jumping
1783088524021387500,3.997387451171875,1.858466889992356,-0.9600583529792726,11.380838760596513,0.3918116688728332,-1.3259162902832031,0.1844318658113479,jumping
1783088524031431400,4.007431396484375,2.3585583921059965,-0.4648426402084529,11.830427279180288,0.1604969501495361,-1.6463284492492676,0.3232635259628296,jumping
1783088524041475600,4.0174755859375,2.668388019126654,-0.056009764252603,11.675391031247376,-0.048854760825634,-1.8994238376617432,0.4479710161685943,jumping
1783088524051519700,4.027519775390625,2.1935034389838575,0.7881457890473306,11.281595127034189,-0.109454721212387,-2.140822172164917,0.5821125507354736,jumping
1783088524061564400,4.037564453125,1.257492316546291,1.016528135959059,11.272025334656238,-0.2240877747535705,-2.179816484451294,0.6443576216697693,jumping
1783088524071608600,4.047608642578125,0.9031533934526144,0.6533259613215923,9.054252839073538,-0.1407377570867538,-1.782455325126648,0.6170381307601929,jumping
1783088524081652700,4.05765283203125,0.4783709609538316,1.4948523351617156,9.419912782126664,0.1276341527700424,-1.3218228816986084,0.6571177244186401,jumping
1783088524091697400,4.067697509765625,0.5264012707598507,2.1304912486232817,9.072297614330052,0.1125665307044982,-1.0092653036117554,0.6784829497337341,jumping
1783088524101741600,4.077741455078125,1.2907044119268656,2.6887089226216077,7.844989277514815,-0.1316447108983993,-0.8704538345336914,0.8250120878219604,jumping
1783088524111785700,4.08778564453125,2.0414729487381873,3.408089364609122,5.779458430710434,-0.3522247672080993,-0.9276548027992249,1.0152802467346191,jumping
1783088524121830400,4.097830322265625,1.436785784509778,4.338514357477426,1.7964760055035351,-0.3856461644172668,-0.7930222749710083,1.3020291328430176,jumping
1783088524131874600,4.10787451171875,-0.1192166004024446,4.4555826938048,-2.187296108776331,-0.3003014326095581,-0.621331512928009,1.5161749124526978,jumping
1783088524141918500,4.11791845703125,-1.5002048021055756,3.692720545226335,-7.042066044443845,-0.1999527364969253,-0.0086185447871685,1.5793153047561646,jumping
1783088524151962600,4.127962646484375,-3.857498434972763,2.760178998595476,-14.823504348546264,-0.1365311592817306,1.5635924339294434,1.5120103359222412,jumping
1783088524162007600,4.138007568359375,-5.4428755290597675,0.0813341751232743,-23.66776594518423,-0.2375897169113159,4.127847671508789,1.030819296836853,jumping
1783088524172051500,4.148051513671875,-4.886090372082591,-5.086597746858001,-26.90153743828535,-0.508809506893158,5.532231330871582,0.2396431863307953,jumping
1783088524182095600,4.158095703125,-0.7631021678794175,-4.416197316616773,-18.19876287217736,-0.2494347840547561,4.722357273101807,-0.192550703883171,jumping
1783088524192140500,4.168140625,-1.4371999182686208,-3.4032881018072363,-13.191347383105754,0.2828581631183624,3.2395286560058594,-0.4607848227024078,jumping
1783088524202184400,4.178184326171875,-2.7033254769951105,-2.580167883881926,-10.71147585670948,0.9795252084732056,1.6974098682403564,-0.6313049793243408,jumping
1783088524212228600,4.188228515625,-2.52415432023704,-1.1880984623245894,-8.187332642388343,1.2530951499938965,0.3179744482040405,-0.7511637806892395,jumping
1783088524222273500,4.1982734375,-1.7526057379864155,1.1633002672851085,-9.060075846138597,0.8031308650970459,-0.5324229598045349,-0.5957705974578857,jumping
1783088524232317400,4.2083173828125,0.5309728529917076,2.015904499978572,-11.892406473231317,0.0715855807065963,-1.0551215410232544,-0.2741400897502899,jumping
1783088524242361600,4.218361572265625,1.0414521493352948,2.0183156527735293,-16.561293771803378,-0.3015139698982239,-1.3505055904388428,-0.0431106202304363,jumping
1783088524252406500,4.228406494140625,-0.0011920593287795,1.2482923803940416,-19.970234784805772,-0.0380626358091831,-1.5095964670181274,-0.0224239826202392,jumping
1783088524262450400,4.238450439453125,-0.5496491676174103,0.7831826136820018,-20.299799916648865,0.4002567827701568,-1.4669173955917358,-0.0644778609275817,jumping
1783088524272494600,4.24849462890625,-0.3693787443805486,1.8671176678292452,-18.297016325658557,0.6380019783973694,-1.2355291843414309,-0.0442157350480556,jumping
1783088524282538800,4.258538818359375,-0.8174653339687734,1.7889485326081511,-15.883685602140426,0.5247471928596497,-0.679178774356842,-0.0408914051949977,jumping
1783088524292583400,4.26858349609375,-1.945115099745244,0.8978373129963875,-14.11097216501832,0.0613590218126773,-0.0062874839641153,-0.1064248755574226,jumping
1783088524302627600,4.278627685546875,-1.9958575911194083,0.9345290671862662,-12.305851665288207,-0.4378064274787903,0.4378041625022888,-0.093984305858612,jumping
1783088524312671500,4.28867138671875,-1.799475479580462,2.4956489412426945,-12.518178072673082,-0.6089837551116943,0.7609620094299316,0.0358719527721405,jumping
1783088524322716400,4.29871630859375,-1.4949341682262718,3.5111452499359843,-13.60906075400114,-0.4437451958656311,0.858207643032074,0.156909242272377,jumping
1783088524332760600,4.308760498046875,-0.773191381021589,3.1062060204178095,-14.49124690887928,-0.1161659732460975,0.916320502758026,0.1337525248527526,jumping
1783088524342804500,4.318804443359375,-0.5206745636761189,2.135112917074561,-14.98724412741661,0.2589412927627563,1.0161871910095217,-0.0303919743746519,jumping
1783088524352849400,4.328849365234375,0.0634453210808336,1.3994132084488868,-10.76057920257449,0.5736387968063354,0.7033401131629944,-0.2427678853273391,jumping
1783088524362893600,4.3388935546875,0.0240195388171821,1.4630768484555183,-10.745134965205192,0.6844927668571472,0.2882489860057831,-0.4132344424724579,jumping
1783088524372937500,4.3489375,0.5734475744972005,1.2180932030938565,-4.384000097367167,0.664925217628479,0.1919155269861221,-0.4947324991226196,jumping
1783088524382981600,4.358981689453125,0.5631877174958586,1.2830964211411773,-4.370801008576154,0.6168219447135925,0.187061533331871,-0.4513519704341888,jumping
1783088524393026600,4.369026611328125,0.3811278900915756,2.186664971265942,-0.5400415274471044,0.3564058244228363,0.1197184473276138,-0.2990494966506958,jumping
1783088524403070500,4.379070556640625,0.887418210312724,2.732626974803209,3.354886182209849,-0.002256684936583,-0.1619700640439987,-0.1738398671150207,jumping
1783088524413742600,4.38974267578125,1.3692118391916157,2.3753347548618913,5.449052171868085,-0.1209740191698074,-0.4191563129425049,-0.1439874321222305,jumping
1783088524423786800,4.399786865234375,0.7951401779793202,1.858372928098589,5.567223793262243,0.1534743458032608,-0.3680809438228607,-0.2716979682445526,jumping
1783088524433830400,4.409830322265625,-0.2963152252027765,1.0731643615469335,4.562110931417346,0.3815480172634125,-0.5044209957122803,-0.298348993062973,jumping
1783088524443875600,4.41987548828125,0.3623586364854127,1.141907642905414,6.900172186678647,0.3983111977577209,-0.8017597794532776,-0.282779186964035,jumping
1783088524453919700,4.429919677734375,0.7980146374370902,1.182186169540882,9.553953003782034,0.2731362283229828,-1.189733624458313,-0.3049982190132141,jumping
1783088524463963400,4.43996337890625,0.4591873909257352,0.1247661973536014,12.338352251398565,0.0983274728059768,-1.541106939315796,-0.3608635067939758,jumping
1783088524474008600,4.450008544921875,0.1712071190763265,-1.0528310369618237,14.89322728859186,-0.2046555578708648,-1.5404267311096191,-0.2888998389244079,jumping
1783088524484052500,4.460052490234375,-0.7228142888937145,-0.8651721839740872,15.525546702241895,-0.4546998739242553,-1.61014723777771,-0.2221427857875824,jumping
1783088524494096600,4.4700966796875,0.1507725991390645,-0.8906032700896263,16.225972268390656,-0.534740686416626,-2.028294086456299,-0.0776868015527725,jumping
1783088524504141600,4.4801416015625,1.70485804451406,-0.0794676505990326,15.492649810290336,-0.183729737997055,-2.0189576148986816,0.0730909183621406,jumping
1783088524514185500,4.490185546875,2.1681243753165007,0.8573578569613397,11.59041440796852,0.1717585921287536,-1.746948480606079,0.1746415048837661,jumping
1783088524524229600,4.500229736328125,1.631888523762673,0.4694286528244614,9.516787348470093,0.2090269327163696,-1.427675724029541,0.2252855598926544,jumping
1783088524534274600,4.510274658203125,1.4483372522242366,-0.2481722122699022,9.56619230763018,0.0217968486249446,-1.065662860870361,0.2571819722652435,jumping
1783088524544318500,4.520318359375,1.7136276264250276,-0.6126137194439768,9.566726560637354,-0.1774396300315857,-0.6192557215690613,0.3214320242404938,jumping
1783088524554362600,4.530362548828125,2.1677960201449693,-0.5470226185061037,8.803653691917658,-0.2914852201938629,-0.169923186302185,0.4302301406860351,jumping
1783088524564406500,4.540406494140625,2.564349552503228,-0.3428985145382583,8.075070537298917,-0.2933003306388855,0.181571289896965,0.5656538605690002,jumping
1783088524574451500,4.550451416015625,2.772325363463163,-0.4079354887247085,7.478628492715955,-0.131318911910057,0.4368302226066589,0.5978692770004272,jumping
1783088524584495600,4.56049560546875,2.848026208874583,-1.1198927949741482,6.738897336617112,0.142954021692276,0.7245773673057556,0.5539652705192566,jumping
1783088524594539500,4.57053955078125,2.0878237810246647,-2.059264041494578,6.39282998278439,0.2707356810569763,0.7983154654502869,0.3929870724678039,jumping
1783088524604584400,4.58058447265625,2.015042476321757,-2.37298190812543,7.898240975230932,0.1791140437126159,0.7221791744232178,0.2045584321022033,jumping
1783088524614628600,4.590628662109375,1.951165924216807,-2.7964322152376173,9.673400636461375,0.0060578510165214,0.6160761713981628,0.0425061546266078,jumping
1783088524624672800,4.6006728515625,1.958665778452903,-2.839417662744224,10.61902553654909,-0.0901816934347152,0.4370195269584656,-0.069068394601345,jumping
1783088524634717400,4.610717529296875,2.135724619232118,-2.513615975087881,11.03386072165966,-0.09092977643013,0.2098827511072158,-0.1641504466533661,jumping
1783088524644761600,4.62076171875,2.1848897782869634,-2.205618385799974,10.876311029601096,-0.0625609457492828,-0.0272124353796243,-0.2347760945558548,jumping
1783088524654805500,4.630805419921875,2.280038982142508,-1.7986420974962412,10.102055672609806,-0.0102740367874503,-0.2995693981647491,-0.2650911211967468,jumping
1783088524664850400,4.640850341796875,2.507681324341893,-1.480458629758656,9.275486191013457,0.0179748497903347,-0.597845733165741,-0.2908487319946289,jumping
1783088524674894600,4.65089453125,2.6372166357934472,-1.4059443637832998,8.57681068340242,0.0296267122030258,-0.8370577692985535,-0.3315655589103699,jumping
1783088524684938500,4.6609384765625,2.7481033608764407,-1.3311270232081414,8.21962280061841,0.03354137763381,-0.9492507576942444,-0.3506262302398681,jumping
1783088524694982700,4.670982666015625,2.9214725533574817,-0.9680956750929356,8.243165004247427,0.0071198921650648,-0.9722580909729004,-0.3185322284698486,jumping
1783088524705027600,4.681027587890625,2.6338451135337353,-0.3596086801901459,8.229395422092079,0.1003541275858879,-0.9437849521636964,-0.257504940032959,jumping
1783088524715071500,4.691071533203125,0.6570930587701499,0.203640850495547,8.096504954993724,0.2169068455696106,-1.147011399269104,-0.4880257546901703,jumping
1783088524725115600,4.70111572265625,-1.487489843569696,-0.589839869838953,8.81442993747592,0.114557035267353,-1.4863004684448242,-0.6829541921615601,jumping
1783088524735160600,4.71116064453125,-1.5738500301614402,-0.2934476704098284,8.138553121650219,-0.0600334182381629,-1.8296241760253904,-0.623551607131958,jumping
1783088524745204500,4.72120458984375,-1.6006071041837333,1.606758028028905,6.671308485990762,-0.2221886366605758,-2.145907163619995,-0.4702417850494385,jumping
1783088524755248600,4.73124853515625,-0.8635884219139814,2.4393213432125744,4.800565467271208,-0.2490969449281692,-2.542340040206909,-0.1694769114255905,jumping
1783088524765293600,4.74129345703125,1.3113894725590944,2.478337156435847,3.390883378264308,-0.2976283133029938,-2.6316826343536377,0.2824907302856445,jumping
1783088524775337500,4.75133740234375,1.5199547738447785,3.4440777928352353,0.594907090100646,-0.4920752942562103,-2.1199004650115967,0.7879176735877991,jumping
1783088524785381600,4.761381591796875,-0.3782011524572968,3.056985477913916,-3.4134231268525124,-0.8555741310119629,-1.0274277925491333,1.0965893268585205,jumping
1783088524795425500,4.771425537109375,-3.20887319868803,1.4494136492840946,-8.028771142938732,-1.3828213214874268,0.4029881060123443,1.0935298204421997,jumping
1783088524805470500,4.781470458984375,-3.903314137469232,-0.9696852823719382,-13.08609369547367,-1.8247989416122437,1.5824010372161863,1.2311687469482422,jumping
1783088524815514600,4.7915146484375,-3.6819939840286966,0.5639645470872521,-16.80851145982742,-1.505873203277588,1.8185770511627195,1.5318588018417358,jumping
1783088524825558500,4.80155859375,-3.574752045188844,2.9189462497502565,-14.86437528811693,-0.5918288826942444,1.387552261352539,1.621845006942749,jumping
1783088524835603500,4.811603515625,-4.006966235123574,2.4711171420544384,-13.033362806761264,-0.0883651673793792,0.8164387345314026,1.4683419466018677,jumping
1783088524845647000,4.821647216796875,-6.549166207399964,0.6114928987205028,-13.030714922600984,-0.3292365372180938,0.5158489346504211,1.0987942218780518,jumping
1783088524855691000,4.83169091796875,-9.200676156961917,-1.1495768623590468,-15.426741460096835,-0.878363847732544,0.7427268028259277,0.5969884991645813,jumping
1783088524865736000,4.84173583984375,-9.886039763057232,-1.5145572987154126,-20.900926904177663,-1.028477668762207,1.1050002574920654,0.1290701180696487,jumping
1783088524875780000,4.851780029296875,-9.31061303397417,-0.5561608875989914,-24.46000119550228,-0.4102152585983276,0.917720377445221,-0.0454532206058502,jumping
1783088524885824000,4.861823974609375,-7.932414462989568,1.960617058651149,-23.93237199038267,0.4596230089664459,0.5225021243095398,-0.1607270389795303,jumping
1783088524895868200,4.8718681640625,-6.440907492733001,2.72498025944233,-22.59388934371471,0.8280249834060669,0.3739558160305023,-0.296856939792633,jumping
1783088524905913000,4.8819130859375,-5.267501426497102,2.456073302179574,-19.77329533164501,0.5859440565109253,0.3351263701915741,-0.5295088887214661,jumping
1783088524915957000,4.89195703125,-5.3099108276814215,0.6399763581439852,-16.04873587908745,0.1889615654945373,0.4941639602184295,-0.7239034175872803,jumping
1783088524926001200,4.902001220703125,-5.931954931032657,-0.0283870133116841,-15.002584319889545,-0.0447970069944858,0.8866395950317383,-0.7780219316482544,jumping
1783088524936046000,4.912046142578125,-5.001512987029552,0.6242991888016461,-15.317267524421212,-0.0635304823517799,1.19967520236969,-0.8169592022895813,jumping
1783088524946090000,4.922090087890625,-3.6191152107894418,0.8736404448509216,-15.089572867512702,0.0239552203565835,1.564622163772583,-0.805178701877594,jumping
1783088524956134100,4.932134033203125,-2.5996996828258037,1.4705711497336624,-15.273496187233924,0.272881418466568,1.7288763523101809,-0.6875995993614197,jumping
1783088524966179000,4.942178955078125,-1.7247684675119817,1.984638277968764,-13.377019592320918,0.693277895450592,1.5318927764892578,-0.5703277587890625,jumping
1783088524976223000,4.952222900390625,-0.783503954590857,1.6577002797588705,-10.140774402582643,1.0013628005981443,0.9643718600273132,-0.5295616984367371,jumping
1783088524986267100,4.96226708984375,0.4200115648351609,1.06537078506127,-6.518273056486248,1.166196584701538,0.2570149004459381,-0.4953106641769409,jumping
1783088524996311000,4.97231103515625,1.472583512469381,1.164117575017363,-2.669966812750697,1.216168999671936,-0.4297860860824585,-0.453759491443634,jumping
1783088525006356000,4.98235595703125,2.7491595919311047,1.7323570229448375,0.4361591281682253,1.2316228151321411,-0.9659518003463744,-0.3691205084323883,jumping
1783088525016400100,4.992400146484375,3.8517905787199735,2.5294547647327184,3.1474200743377208,1.2491029500961304,-1.5393043756484983,-0.2413681298494339,jumping
1783088525026444000,5.002444091796875,4.099160242435336,2.7038825263559816,5.900179736587405,1.1113632917404177,-1.8974270820617676,-0.1585152000188827,jumping
1783088525036489000,5.012489013671875,3.810538530877232,2.086665112508834,6.885710530605912,0.9476399421691896,-2.157993793487549,-0.1087542921304702,jumping
1783088525046533000,5.022533203125,3.5456872787460685,1.83574900835827,9.282101225239035,0.5376922488212585,-2.256464719772339,-0.0506993420422077,jumping
1783088525056577000,5.032576904296875,3.4710397417798635,1.894355657236278,10.218836131906508,0.4865877628326416,-2.326382637023926,0.0864766240119934,jumping
1783088525066622000,5.0426220703125,2.5319509654626247,1.009670963540673,14.049505012142657,0.4535185992717743,-2.267772436141968,0.2932490706443786,jumping
1783088525076666000,5.052666015625,1.7530331696182488,1.3339416422374546,15.882553967761991,0.1241862475872039,-2.311375141143799,0.4785507619380951,jumping
1783088525086710000,5.0627099609375,3.8012636297926305,1.7155714539691804,16.50780066654682,-0.2310816198587417,-2.2191002368927,0.7489310503005981,jumping
1783088525096755000,5.0727548828125,5.379546673965454,1.9396381296388805,16.146781242775916,-0.5205278396606445,-2.1815261840820312,1.0643340349197388,jumping
1783088525106799000,5.082799072265625,5.903673423922061,2.9319261428326366,15.196175631666184,-0.6010103225708008,-2.1328344345092773,1.3348371982574463,jumping
1783088525116843000,5.092843017578125,5.589537331879138,2.3019027311652898,13.80223822427988,-0.4393413066864013,-1.8602741956710815,1.4426722526550293,jumping
1783088525126887200,5.10288720703125,4.532696036362648,0.8548591720134019,11.984010405695438,-0.1622282415628433,-1.413182497024536,1.3562191724777222,jumping
1783088525136932000,5.11293212890625,3.158686441500485,-0.3544711711712181,10.105333671367168,0.0220997966825962,-0.753196120262146,1.169544339179993,jumping
1783088525146976000,5.12297607421875,1.5301505891665816,-1.4110596609704196,8.252379991838335,0.0797381401062011,-0.0412616543471813,0.8992850184440613,jumping
1783088525157020200,5.133020263671875,1.3411325766548514,-2.2700142856039105,7.216402036130428,-0.0207780860364437,0.537053644657135,0.6294689774513245,jumping
1783088525167065000,5.143065185546875,2.199986955784261,-2.2734645721882583,6.455590098080038,-0.2589562535285949,1.0744954347610474,0.3951688706874847,jumping
1783088525177109000,5.15310888671875,2.6809584546253085,-2.586841370296478,5.515092039486766,-0.5422673225402832,1.6467370986938477,0.1122133359313011,jumping
1783088525187153200,5.163153076171875,2.6612472074612974,-3.8359395141154526,4.735981059157848,-0.7460283041000366,2.2527225017547607,-0.2485859990119934,jumping
1783088525197198000,5.173197998046875,2.2355404997244475,-4.828822424462437,4.936276252487302,-0.7710332274436951,2.6212029457092285,-0.5899449586868286,jumping
1783088525207242000,5.183241943359375,1.951599931719899,-4.725556111255288,6.393700920400023,-0.6662982106208801,2.738924741744995,-0.8389226198196411,jumping
1783088525217286100,5.1932861328125,2.1158459065467117,-4.09923593802005,7.867823625135421,-0.5094228386878967,2.6077120304107666,-0.9803945422172546,jumping
1783088525227330000,5.203330078125,2.526935475388169,-3.3026971452891827,9.009643297496437,-0.3199124038219452,2.2978835105895996,-1.0241144895553589,jumping
1783088525237375000,5.213375,2.484383450862765,-2.662503052741289,9.379458606663343,-0.1385822743177414,1.944309115409851,-1.0737217664718628,jumping
1783088525247419100,5.223419189453125,2.3675886707797646,-2.6166011332660912,8.912259612587095,0.0363660119473934,1.4800552129745483,-1.1806063652038574,jumping
1783088525257463000,5.233463134765625,2.7455712120503186,-1.9720305791996415,9.074911596220732,0.2869428396224975,0.9044045209884644,-1.184170484542847,jumping
1783088525267508000,5.243508056640625,2.81235283794701,-1.3616960567340255,9.005252369061111,0.0911594927310943,0.3742487728595733,-0.775355875492096,jumping
1783088525277552000,5.25355224609375,3.0299864118292925,-0.3394742391780018,8.491572194316984,-0.1340841948986053,-0.2212630063295364,-0.3767431378364563,jumping
1783088525287596000,5.263595947265625,4.498696151605248,-0.3590792494885623,9.372610932725667,-0.291947066783905,-0.4875316917896271,0.110438734292984,jumping
1783088525297641000,5.273640869140625,5.011154091078042,-0.2533944769628345,9.31033480155468,-0.1409439891576767,-0.6643176078796387,0.566241979598999,jumping
1783088525307685000,5.28368505859375,4.451164000579714,-0.8604387257114052,10.6817821447134,-0.1142240017652511,-0.8413751125335693,0.855429470539093,jumping
1783088525317729000,5.29372900390625,4.02103684605211,-0.9551571369342504,10.832857672321795,-0.1405373811721801,-1.0303735733032229,1.0149853229522705,jumping
1783088525327773200,5.303773193359375,2.991104307988286,-1.4661926423884928,11.728455097436903,-0.2873913049697876,-1.2404069900512695,0.9147766828536988,jumping
1783088525337818000,5.313818115234375,2.319604976594448,-1.6148980798646806,11.275182921904324,-0.487865000963211,-1.55277419090271,0.8608149290084839,jumping
1783088525347862000,5.323862060546875,0.7563342081144452,-0.0372457348108291,9.381099944129586,-0.6082658767700195,-1.8229029178619385,0.9140242338180542,jumping
1783088525357906200,5.33390625,-0.8632520295664667,0.844068021146953,6.803308726251125,-0.6439878940582275,-2.205730676651001,0.8631898164749146,jumping
1783088525367950800,5.343950927734375,-0.8649421746104955,0.8363084930613637,4.6305894243597985,-0.561953604221344,-2.550492763519287,0.8047506213188171,jumping
1783088525377995000,5.3539951171875,0.9903007848992944,2.099540083912015,2.118240108206868,-0.2887194156646728,-2.6337332725524902,1.0705569982528689,jumping
1783088525388039200,5.3640390625,2.0317565874963996,4.341816906154156,-0.664910016131401,0.086745448410511,-2.306281566619873,1.4255783557891846,jumping
1783088525398083800,5.374083740234375,2.3076082493305203,4.126538955487311,-3.298156579250097,0.3411210179328918,-1.697378396987915,1.7494051456451416,jumping
1783088525408128000,5.3841279296875,0.6317492125466465,3.6911242159456017,-6.230581903776526,0.2313308864831924,0.095140591263771,1.971423864364624,jumping
1783088525418172200,5.394172119140625,-7.82855076841116,1.6510644950062034,-13.6127525942564,-0.5875312089920044,3.4027318954467773,1.6475294828414917,jumping
1783088525428216000,5.404216064453125,-13.741239857959746,-3.69333633903712,-24.588691872823237,-1.458121418952942,5.696671009063721,0.9329549074172974,jumping
1783088525438261000,5.414260986328125,-13.143687806308268,-3.6325495696410535,-26.570525030243395,-0.8732720017433167,5.700137615203857,0.1005077585577964,jumping
1783088525448305200,5.42430517578125,-8.698149244394898,-1.116340070928633,-20.458754799330233,0.5828022360801697,4.137409210205078,-0.4553831815719604,jumping
1783088525458349000,5.43434912109375,-5.012102185583115,2.360411034235358,-15.08209800158739,1.403533101081848,2.367037057876587,-0.6747104525566101,jumping
1783088525468394000,5.44439404296875,-3.5397640261769294,4.291950466962159,-12.805817787456512,1.168477177619934,1.0785269737243652,-0.6304436326026917,jumping
1783088525478438100,5.454438232421875,-2.8849767601311207,3.5798327094539997,-12.652413524639606,0.784008264541626,0.1287925988435745,-0.6897698044776917,jumping
1783088525488482000,5.46448193359375,-3.217568254058063,1.0305094611689447,-14.294614914232492,0.6374091506004333,-0.8123337030410767,-0.8384310603141785,jumping
1783088525498527000,5.47452685546875,-2.74907542077899,0.5750406523749232,-15.723149003225563,0.7186155915260315,-1.5921528339385986,-0.9879432916641236,jumping
1783088525508571100,5.484571044921875,-2.8269913118913768,-1.2973536406829953,-16.64970855283737,0.8288983106613159,-1.7397531270980835,-1.282850742340088,jumping
1783088525518615000,5.494614990234375,-3.407768462091684,-1.941010148644447,-17.460546796816587,0.8025737404823303,-1.4794690608978271,-1.4704962968826294,jumping
1783088525528660000,5.504659912109375,-3.6705116360276935,-0.904539148722589,-17.177903575146196,0.6228069067001343,-0.8385647535324097,-1.4386261701583862,jumping
1783088525538704000,5.514703857421875,-3.3409991111546753,0.937254838888347,-17.066961320483685,0.3583672642707824,0.0281176436692476,-1.201037883758545,jumping
1783088525548748000,5.524748046875,-2.32017050152272,3.1981717719316483,-16.3412937610507,0.175923615694046,0.6336031556129456,-0.8389623165130615,jumping
1783088525558792200,5.534792236328125,-1.2857061652481556,4.528806043186783,-14.11385853410959,0.1324448436498642,0.9393191337585448,-0.4257499575614929,jumping
1783088525568836900,5.5448369140625,-1.7528477300487455,4.857823478019237,-12.656654815471173,0.2690417468547821,1.1627849340438845,-0.0909536778926849,jumping
1783088525578881000,5.554881103515625,-2.4942577791452405,4.179797375205159,-12.09419161285758,0.4896252453327179,1.3348253965377808,0.035606388002634,jumping
1783088525588925200,5.56492529296875,-2.3878426465183495,2.7940038190469143,-11.116510947817565,0.6156035661697388,1.4775030612945557,-0.0155218672007322,jumping
1783088525598969900,5.574969970703125,-1.9602781820856032,1.704645278546214,-10.083168601310252,0.6334864497184753,1.6026625633239746,-0.1542991995811462,jumping
1783088525609014000,5.585013916015625,-1.28366501480937,0.8929828587025403,-8.929325898200274,0.6569032073020935,1.6229848861694336,-0.3450636565685272,jumping
1783088525619058200,5.59505810546875,-0.4019729270584881,0.4298552057184279,-6.692098760563135,0.7245240807533264,1.463144302368164,-0.5523159503936768,jumping
1783088525629102800,5.605102783203125,0.5108510887980461,0.8818322268739343,-3.3947201799482105,0.7232156991958618,1.0611830949783323,-0.6197535395622253,jumping
1783088525639147000,5.61514697265625,1.3530091846704482,1.9209248074710368,0.8474410047113895,0.6266974210739136,0.4960845112800598,-0.5859917998313904,jumping
1783088525649191200,5.625191162109375,1.942452894798666,1.7987233460389076,4.553373498210311,0.4173724353313446,0.0126637006178498,-0.5584683418273926,jumping
1783088525659235000,5.635235107421875,2.21933302289769,1.6965142867997287,6.8581181748032565,0.1489010602235794,-0.2903811037540436,-0.5271897315979004,jumping
1783088525669280000,5.645280029296875,2.056377526272833,1.1586198543839157,8.702799116027355,-0.1037461087107658,-0.4850022792816162,-0.5462587475776672,jumping
1783088525679324200,5.65532421875,1.7979221126586198,0.5334969281092286,10.776827742064,-0.4132554829120636,-0.7251943349838257,-0.5483123064041138,jumping
1783088525689368000,5.6653681640625,1.040984970214963,0.1983931591004133,12.823386177372932,-0.6878653168678284,-1.020642638206482,-0.5331497192382812,jumping
1783088525699413000,5.6754130859375,0.4513980522237718,-0.0589735824942588,13.843354663044211,-0.7361279129981995,-1.2848740816116333,-0.5014104247093201,jumping
1783088525709457000,5.685456787109375,0.5917249529331923,0.1564765098690986,13.251273736280202,-0.5496372580528259,-1.5945773124694824,-0.3872775733470917,jumping
1783088525719501000,5.6955009765625,1.5763738495506343,0.823168002589792,12.098831547617912,-0.2028451859951019,-1.8020572662353516,-0.2032741904258728,jumping
1783088525729546000,5.7055458984375,2.461410571554303,0.9899819282084704,11.163854882794618,0.1180939823389053,-1.8436182737350464,-0.0522702485322952,jumping
1783088525739590000,5.71558984375,2.7085683460846544,0.3917228973314166,10.796851123917104,0.2412566691637039,-1.7170488834381104,-0.003551714355126,jumping
1783088525749634000,5.725634033203125,2.7169635417252778,-0.4003077703252434,10.87805991909504,0.2213871926069259,-1.4631316661834717,-0.0234459657222032,jumping
1783088525759678200,5.73567822265625,3.0391458698406812,-1.0494995544515549,11.136742419463395,0.1466005742549896,-1.0815446376800537,-0.0555815324187278,jumping
1783088525769723000,5.745722900390625,3.2554245219826696,-1.0594758818037808,10.931596278971432,0.0499455258250236,-0.6454762816429138,-0.078370064496994,jumping
1783088525779767000,5.75576708984375,3.5010087635859843,-0.9303361455410718,10.425602567076682,-0.0606036223471164,-0.1262644976377487,-0.0443306118249893,jumping
1783088525789811200,5.765811279296875,3.68503671272546,-0.4533057855412363,9.29681539476812,-0.2121814042329788,0.4854520857334137,0.0661522597074508,jumping
1783088525799855900,5.77585595703125,3.6005627782717347,0.0667059303119778,7.875709409949183,-0.3852493166923523,1.1156595945358276,0.1943163573741912,jumping
1783088525809900000,5.785900146484375,2.9447505530923603,-0.1331866735659539,6.730501264193654,-0.5166051387786865,1.6733150482177734,0.2322336882352829,jumping
1783088525819944200,5.795944091796875,1.9082640633404253,-1.0003322034396231,5.834678798151016,-0.5048891305923462,2.1710593700408936,0.1960373371839523,jumping
1783088525829988900,5.80598876953125,1.3130270106330513,-1.6580770041167736,5.382829348897934,-0.4307852685451507,2.4430296421051025,0.1310493350028991,jumping
1783088525840033000,5.816032958984375,1.335400170482695,-2.132805370784551,5.929424535772204,-0.3622935712337494,2.461651563644409,0.0965744480490684,jumping
1783088525850077200,5.8260771484375,1.5283859175816177,-1.9726500262722373,7.010564406242966,-0.3112475574016571,2.192413806915283,0.1043627262115478,jumping
1783088525860121000,5.83612109375,1.7607737007424231,-1.824325697068125,8.267506833821535,-0.2415981739759445,1.7184922695159912,0.0919811576604843,jumping
1783088525870166000,5.846166015625,1.90518319459036,-1.8671790426276624,9.278895707195996,-0.1942857950925827,1.12165629863739,0.0984979197382927,jumping
1783088525880210200,5.856210205078125,2.2625199843257664,-1.821481121291965,9.770216166093943,-0.186755433678627,0.5361515283584595,0.1496380716562271,jumping
1783088525890254000,5.866254150390625,2.726747269114852,-1.686670353655517,9.528947741863131,-0.1268754303455352,0.0654175281524658,0.2196380943059921,jumping
1783088525900299000,5.876299072265625,3.141585376834869,-1.453346020296961,9.156266521871087,-0.0046187629923224,-0.2713117301464081,0.3138239681720733,jumping
1783088525910343200,5.88634326171875,3.392457203452289,-1.0770451485030352,9.204323573553562,0.1148722320795059,-0.5038337111473083,0.4061366021633148,jumping
1783088525920387000,5.896386962890625,3.3540427171230314,-0.8025324801877141,9.556890226277709,0.1051186695694923,-0.644849956035614,0.4661179184913635,jumping
1783088525930432000,5.906431884765625,3.06642404512763,-0.6241968974709511,9.800441208487747,-0.0676919594407081,-0.666438102722168,0.5025159120559692,jumping
1783088525940476200,5.91647607421875,2.265916202635318,-0.1948407273158431,9.6656913772583,-0.2272941470146179,-0.5210279226303101,0.5430425405502319,jumping
1783088525950520000,5.92652001953125,1.371910430625826,0.4525801016151904,9.161367059880494,-0.2479882836341858,-0.3790389895439148,0.5853862166404724,jumping
1783088525960564200,5.936564208984375,1.0877074122928083,1.005977515850216,8.92446559868753,-0.2777797281742096,-0.3340496718883514,0.6621986627578735,jumping
1783088525970609200,5.946609130859375,0.8900472436420619,1.562639046447724,8.862368331214785,-0.3500187695026397,-0.4413244724273681,0.8042807579040527,jumping
1783088525980653000,5.956653076171875,0.7910580232322215,1.914456488239765,8.230672017899154,-0.4367991983890533,-0.659956157207489,0.917762041091919,jumping
1783088525990697200,5.966697265625,0.5121605639614164,1.9614836123526096,6.7520315434783695,-0.5753729939460754,-0.8243852257728577,1.040199875831604,jumping
1783088526000742000,5.976741943359375,-0.2516501175135374,2.078599002692103,3.9252491981625552,-0.6708416938781738,-0.7678250074386597,1.210568904876709,jumping
1783088526010786000,5.9867861328125,-1.43346701535061,2.6388293316870928,0.4502344152718782,-0.6360101103782654,-0.4903801381587982,1.369340181350708,jumping
1783088526020830200,5.996830322265625,-1.901825993116945,3.643582128047943,-2.4271388841181993,-0.5926732420921326,-0.0573573224246501,1.7340989112854004,jumping
1783088526030875000,6.006875,-0.2240707673229277,6.9514055303096765,-5.737754547446966,-0.8323843479156494,0.9751373529434204,2.239344596862793,jumping
1783088526040919000,6.0169189453125,-1.1140838164344429,8.166851579895615,-12.851971635866164,-1.3578238487243652,2.4883687496185303,2.2215688228607178,jumping
1783088526050963200,6.026963134765625,-6.079727325442433,1.3226152154505253,-19.630092144846916,-1.5385791063308716,3.4496352672576904,1.388621807098389,jumping
1783088526061008000,6.0370078125,-9.720696056121588,-4.99409423520565,-21.74381214528084,-0.9511679410934448,3.284680128097534,0.4235281944274902,jumping
1783088526071052000,6.047052001953125,-8.109433410149812,-5.346565610861778,-21.236910086369512,-0.0366090424358844,2.1972532272338867,-0.1625395119190216,jumping
1783088526081096200,6.05709619140625,-4.6710997139245265,-2.1991674560949206,-20.110129577708243,0.5435832738876343,1.2381080389022827,-0.4669952690601349,jumping
1783088526091140000,6.06714013671875,-2.833475120952725,0.5042316706582903,-20.46896055152416,0.7558829188346863,0.6229613423347473,-0.6963558197021484,jumping
1783088526101185000,6.07718505859375,-1.9322364750802516,0.8483052203252911,-19.951431884658337,0.8691290616989136,0.0201069414615631,-1.061824917793274,jumping
1783088526111229200,6.087229248046875,-1.9125256663076575,-0.4811617607161402,-17.200218282806873,0.9639909863471984,-0.6571736335754395,-1.5126850605010986,jumping
1783088526121273000,6.097273193359375,-2.634018424274027,-1.6129644814535975,-14.080433234369751,0.8897894620895386,-1.300369143486023,-1.8829797506332395,jumping
1783088526131318000,6.107318115234375,-2.9968486968591805,-1.2745318602830171,-12.410485759717226,0.6226212978363037,-1.7138667106628418,-2.072057008743286,jumping
1783088526141362200,6.117362060546875,-2.950375699497759,-0.3169534875512123,-12.467951275736093,0.3268993496894836,-1.80837082862854,-2.141486406326294,jumping
1783088526151406000,6.127406005859375,-2.634909820155799,0.3555874618500471,-13.652558534944056,0.1138198003172874,-1.3919780254364014,-2.0523595809936523,jumping
1783088526161451000,6.137450927734375,-2.062782571009546,1.40193454362005,-16.057361084091664,-0.0473504476249218,-0.4616069793701172,-1.7747571468353271,jumping
1783088526171495000,6.147494873046875,-1.4962348755612969,2.5700781592831015,-18.340751422488687,-0.1668580323457718,0.6756711006164551,-1.3854501247406006,jumping
1783088526181539000,6.1575390625,-0.6202642341971397,3.5656703285887836,-18.502245468258856,-0.1269196718931198,1.4199845790863037,-1.0091809034347534,jumping
1783088526191583200,6.167583251953125,0.2574280433278531,3.63673299280554,-16.218659899550676,0.1252823173999786,1.9078845977783203,-0.6851167678833008,jumping
1783088526201628000,6.1776279296875,0.1756453207194805,4.035992715382576,-14.12281340945959,0.3837263882160187,2.231144905090332,-0.4464367926120758,jumping
1783088526211672000,6.187672119140625,-0.2603950764399022,3.3428172664925455,-11.919084052276611,0.4954927563667297,2.4254441261291504,-0.3829894959926605,jumping
1783088526221716200,6.19771630859375,-0.4174707943111658,1.9592516155168411,-9.675151279520987,0.5400298833847046,2.412442922592163,-0.4068258702754974,jumping
1783088526231761000,6.207760986328125,-0.3498021929794922,1.585536084040999,-6.654105422255396,0.5163152813911438,1.973607301712036,-0.4361573159694671,jumping
1783088526241805000,6.21780517578125,-0.1632198466494679,1.5113567491084337,-3.0719091985404487,0.5202735066413879,1.3170613050460815,-0.447262167930603,jumping
1783088526251849200,6.22784912109375,-0.2379082270827144,1.9366008077695964,-0.297203661942482,0.5301226377487183,0.5924091935157776,-0.4466747045516968,jumping
1783088526261894000,6.237893798828125,-0.4095146842075511,2.5928409029722213,2.3774364033162594,0.5955716967582703,-0.1230687275528907,-0.4678939878940582,jumping
1783088526271938000,6.24793798828125,-0.4274461352827027,2.762445189961791,4.9875049199432135,0.6979550123214722,-0.6395976543426514,-0.5163888931274414,jumping
1783088526281982200,6.257982177734375,-0.4085572008196264,2.76773423628062,7.021895363074541,0.7491683959960938,-1.0338789224624634,-0.5766953825950623,jumping
1783088526292026000,6.268026123046875,0.3439380867190659,2.4228442556641996,9.573630348676442,0.678413450717926,-1.3228195905685425,-0.6435423493385315,jumping
1783088526302071000,6.278071044921875,1.0133727406680584,1.8089551094569265,11.807365552544594,0.3907299935817718,-1.525335431098938,-0.6330753564834595,jumping
1783088526312115200,6.288115234375,1.0438346605576574,1.7444085491359234,13.207889352583884,-0.0006263754330575,-1.5908734798431396,-0.5945903658866882,jumping
1783088526322159000,6.2981591796875,0.4440096224728971,1.2695133014686404,14.046753083086012,-0.3838483095169067,-1.5372872352600098,-0.5820378065109253,jumping
1783088526332204000,6.3082041015625,-0.2411495470914989,0.3870262639477849,14.290225154840943,-0.6955724358558655,-1.4807608127593994,-0.599077045917511,jumping
1783088526342248000,6.318248046875,-0.1588497418064623,-0.3344885597199201,13.909472272074222,-0.7242555022239685,-1.41181218624115,-0.5918880701065063,jumping
1783088526352292000,6.3282919921875,0.0185268596850335,-0.6700172761425376,12.892371450793744,-0.4781740009784698,-1.3165453672409058,-0.6184943318367004,jumping
1783088526362337000,6.3383369140625,0.21987945311293,-0.7188210545390844,12.038041271090506,-0.1940906196832656,-1.2601675987243652,-0.6124601364135742,jumping
1783088526372381000,6.348380859375,0.9231023948952556,-0.8770575598180294,11.657240457528829,-0.0324212908744812,-1.2474088668823242,-0.5377933979034424,jumping
1783088526382425000,6.358425048828125,1.358048640142381,-0.953329775376618,11.234492015075682,-0.0124920550733804,-1.1959038972854614,-0.4306021928787231,jumping
1783088526392469200,6.36846923828125,1.743791878542304,-0.9669592184089124,10.365753370791673,-0.0523177832365036,-1.067334532737732,-0.2634901702404022,jumping
1783088526402514000,6.378513916015625,2.393931026521325,-0.9238364082582294,9.01976663210392,-0.0637661814689636,-0.8088999390602112,-0.0766646265983581,jumping
1783088526412558000,6.38855810546875,2.576914142782986,-1.1144104180403054,7.445213714370131,-0.0295358225703239,-0.3896514475345611,0.081001378595829,jumping
1783088526422602200,6.398602294921875,2.3619769683778284,-1.5690902684137225,6.187122116756439,-0.0179036669433116,0.0629354491829872,0.1742197424173355,jumping
1783088526432647000,6.40864697265625,2.1089618461214004,-2.2667364329770208,6.0397103723526,-0.0866144448518753,0.4242023527622223,0.1607261300086975,jumping
1783088526442691000,6.418691162109375,1.803482669395208,-2.951569585457444,6.697276455461979,-0.230557233095169,0.6282750368118286,0.0715800151228904,jumping
1783088526452735200,6.4287353515625,1.6458260098308324,-3.5167815022572873,7.694578351294994,-0.3612643480300903,0.6434738636016846,-0.0168882869184017,jumping
1783088526462780000,6.43877978515625,1.618511886447668,-3.870314077404142,8.216407345703244,-0.3848042786121368,0.5281196236610413,-0.13199383020401,jumping
1783088526472824000,6.448823974609375,1.5927096289321778,-4.049616167065501,8.151198083689808,-0.2962030470371246,0.3050414621829986,-0.2677694857120514,jumping
1783088526482868200,6.4588681640625,1.6358379920408128,-4.011290528063475,8.349941955924034,-0.1783144772052765,0.0343181081116199,-0.3867078721523285,jumping
1783088526492912000,6.468912109375,1.5773907715082167,-3.764598032957315,8.491414373406768,-0.0850463956594467,-0.1772160679101944,-0.4518549740314483,jumping
1783088526502957000,6.47895703125,1.4580718797750771,-2.986840220803022,8.538913206684589,-0.0294870007783174,-0.2945355176925659,-0.4494213759899139,jumping
1783088526513001000,6.4890009765625,1.596956180460751,-2.0160554527565835,9.01601517061591,-0.0574839860200881,-0.4089095294475555,-0.4085232019424438,jumping
1783088526523045000,6.499045166015625,1.9092777704276145,-1.1733949603199958,9.87373323919177,-0.1228488832712173,-0.5920780301094055,-0.3399995565414428,jumping
1783088526533090000,6.509090087890625,2.209003059802204,-0.2446954760700464,10.503275004822015,-0.1462140381336212,-0.83885657787323,-0.2353082001209259,jumping
1783088526543134000,6.519134033203125,2.5000246721088883,0.4888561146110295,10.685436575567724,-0.126689612865448,-1.1909661293029783,-0.0832329094409942,jumping
1783088526553178000,6.52917822265625,2.5062299564898014,0.9926949865594504,10.775516074943544,-0.0539077743887901,-1.6244451999664309,0.0597410649061203,jumping
1783088526563223000,6.53922314453125,1.9704371725283565,0.7829916211545467,10.453255128633977,0.0059174755588173,-1.9048912525177,0.1507945507764816,jumping
1783088526573267000,6.549266845703125,1.6079907846942545,0.8257789157405495,9.19634426523745,0.0184332653880119,-2.053654193878174,0.3324740529060364,jumping
1783088526583311000,6.55931103515625,1.006560722565651,1.5595643151775,8.284941368225216,-0.0842944458127021,-2.0723414421081543,0.4795010387897491,jumping
1783088526593356000,6.56935595703125,0.8688169702172279,2.108541721013188,7.659595885241031,-0.3139787316322326,-2.0906965732574463,0.6112444400787354,jumping
1783088526603400000,6.57939990234375,1.3974699654266238,2.415143910419941,7.163911385914683,-0.52585369348526,-2.2379348278045654,0.6996185183525085,jumping
1783088526613444000,6.589444091796875,1.9664254526689648,2.9571511849820613,5.930840247789025,-0.7455103397369385,-2.114346504211426,1.023096799850464,jumping
1783088526623488300,6.59948828125,-0.4069675204753875,4.042638729268313,2.5078724629998206,-0.8598635196685791,-1.935586929321289,1.4897388219833374,jumping
1783088526633533000,6.609532958984375,-3.255365777532756,3.374265713201463,0.3322422420978546,-0.8064428567886353,-1.8599478006362915,1.4333933591842651,jumping
1783088526643577000,6.6195771484375,-0.1226452596768736,1.6698291089698671,-3.4012796845942734,-0.7465880513191223,-1.0715725421905518,2.0079336166381836,jumping
1783088526653621000,6.62962109375,-0.4544064402595162,6.87267744603157,-12.747917387151718,-1.0801721811294556,1.872666358947754,2.4741899967193604,jumping
1783088526663666000,6.639666015625,-7.789652005696296,3.1899744369506835,-28.6618531661272,-1.639256238937378,5.420007705688477,1.6254072189331057,jumping
1783088526673710000,6.6497099609375,-11.964863806676863,-7.145227728232741,-36.06367255992889,-1.093924045562744,6.138895034790039,0.5137815475463867,jumping
1783088526683754000,6.65975390625,-5.175664269798994,-6.235322960823774,-24.75322075624466,0.4100819826126098,4.489694595336914,0.2940395772457123,jumping
1783088526693798100,6.669798095703125,-0.1662279424242675,1.375868958993256,-13.774513182008263,1.730326533317566,2.7423319816589355,0.4351482391357422,jumping
1783088526703843000,6.679843017578125,-2.708889540863037,4.7630409155189986,-7.848329820114373,2.06636643409729,0.8501531481742859,0.2985634803771972,jumping
1783088526713887000,6.689886962890625,-2.9567139626085757,2.4946716206431385,-2.89476925534904,1.4445462226867676,-0.8311088681221008,0.0910354256629943,jumping
1783088526723931100,6.69993115234375,-3.1351810627505183,0.0405716643631458,-3.655199500605464,0.6568740606307983,-1.9463608264923096,-0.2577497363090515,jumping
1783088526733976000,6.70997607421875,-3.2450311382621524,-1.6652727608397602,-7.839826780185103,0.201474979519844,-2.5432894229888916,-0.55544114112854,jumping
1783088526744020000,6.72002001953125,-3.099744715449214,-0.76910981079638,-12.401964599609377,0.0463173538446426,-2.5455191135406494,-0.5751674771308899,jumping
1783088526754064100,6.730064208984375,-3.4496389340937137,1.0849638126730918,-16.668067216348646,0.2649997174739837,-2.14180850982666,-0.4172104895114898,jumping
1783088526764109000,6.740109130859375,-3.4384161138117313,1.638223133611679,-18.5512167121768,0.5728763341903687,-1.4061293601989746,-0.2040707767009735,jumping
1783088526774153000,6.750153076171875,-4.081894342596828,1.7753838253751395,-18.95190529851317,0.5871767997741699,-0.2589741349220276,0.0985493212938308,jumping
1783088526784197000,6.760197021484375,-4.3911046686753625,2.282064350490272,-19.222375267308948,0.2522096931934356,1.0594557523727417,0.3705880045890808,jumping
1783088526794242000,6.770241943359375,-4.946559746092557,2.122738296408951,-18.342545904690027,-0.2215620279312133,2.2089226245880127,0.5084397792816162,jumping
1783088526804286000,6.780285888671875,-5.701638108927011,1.7267524809360504,-16.748807224971056,-0.4813698828220367,2.867408037185669,0.6181915998458862,jumping
1783088526814330000,6.790330078125,-4.93709925930798,2.8212998222514987,-14.610164380204676,-0.3915493488311767,2.9625802040100098,0.7483839988708496,jumping
1783088526824374000,6.8003740234375,-3.533164189520478,4.294719347153603,-13.141069148242472,-0.0290707480162382,2.7728869915008545,0.8487803936004639,jumping
1783088526834419000,6.8104189453125,-2.202757735671848,5.038558815354109,-12.266769362699986,0.3662686049938202,2.3963544368743896,0.8311548233032227,jumping
1783088526844463000,6.820463134765625,-1.0861746497675775,4.594846203066409,-11.083360373365878,0.6260187029838562,1.9447650909423828,0.6708916425704956,jumping
1783088526854506800,6.8305068359375,-0.1215980156462639,3.817475636664033,-9.0932252515465,0.7552812099456787,1.509573221206665,0.511151134967804,jumping
1783088526864551700,6.8405517578125,0.7439151637852192,3.597047463627159,-5.981424772122502,0.8299804925918579,0.9553114771842957,0.3768740594387054,jumping
1783088526874595800,6.850595947265625,1.674148725734651,3.3588881113275884,-2.0640911693900823,0.8804811239242554,0.4949944019317627,0.2716055810451507,jumping
1783088526884639700,6.8606396484375,2.1310949136048554,2.8607208552747965,1.044064231529832,0.901430070400238,0.1996476948261261,0.2245270162820816,jumping
1783088526894684000,6.870683837890625,2.298459897235036,2.205531730429828,3.8201451481342312,0.8763225078582764,-0.0100966040045022,0.2094510495662689,jumping
1783088526904728800,6.880728759765625,2.0610306127756832,1.5564596271604298,6.6377212736874815,0.7384935617446899,-0.1857017129659652,0.19038787484169,jumping
1783088526914772700,6.890772705078125,1.631901821635663,0.8001146053910255,8.938160362040996,0.5328839421272278,-0.4719462394714355,0.1647275388240814,jumping
1783088526924817000,6.90081689453125,1.057216047113016,0.2143704804331064,11.44643731418848,0.3218705058097839,-0.8292391300201416,0.1470699608325958,jumping
1783088526934861800,6.91086181640625,0.1518411051534116,-0.1701420471280813,13.486728505796194,0.1372840255498886,-1.223928451538086,0.1415770798921585,jumping
1783088526944905700,6.92090576171875,-0.6221168032612652,-0.6510287902951241,14.737107337075471,0.0097979754209518,-1.5731143951416016,0.1372590214014053,jumping
1783088526954950000,6.930949951171875,-0.6839948019601404,-1.068402992364019,15.230293005323407,-0.0760377198457717,-1.800891399383545,0.1612206697463989,jumping
1783088526964994600,6.94099462890625,-0.022687632626295,-0.9292489348262548,15.011104310953616,-0.1029697358608245,-1.821509599685669,0.2138263583183288,jumping
1783088526975038700,6.951038818359375,0.7002214218787849,-0.8991217998489737,14.43303788101673,-0.1061583682894706,-1.562196135520935,0.2438252419233322,jumping
1783088526985083000,6.961082763671875,0.7022837612360715,-0.9426344861000776,13.60083536196947,-0.0713026523590087,-1.0732413530349731,0.2080627083778381,jumping
1783088526995127600,6.97112744140625,0.3821596808247268,-1.33601537977159,12.69863985376358,-0.0359553433954715,-0.4526057243347168,0.1461124867200851,jumping
1783088527005171700,6.981171630859375,0.212107942328602,-1.5564955752566456,11.844717670339346,-0.0869871005415916,0.1982609927654266,0.0959406569600105,jumping
1783088527015215900,6.9912158203125,0.4400431299947202,-1.7920951600708066,10.756219838321208,-0.2312466353178024,0.8139933347702026,0.041132740676403,jumping
1783088527025259800,7.001259765625,0.7064722989670932,-1.9146397358521816,9.4146456553787,-0.3818968832492828,1.306044578552246,-0.0238920655101537,jumping
1783088527035304700,7.0113046875,0.8705990313284099,-1.9348516260147093,8.107605610200762,-0.4772294163703918,1.520324945449829,-0.0839752703905105,jumping
1783088527045348900,7.021348876953125,1.1403682314436885,-2.1987629669472573,7.1238704674273725,-0.5063129663467407,1.4117885828018188,-0.1196520403027534,jumping
1783088527055392800,7.031392822265625,1.1323434765506537,-2.4974054295212027,6.067698449474573,-0.3526173830032348,1.277395248413086,-0.1796863079071045,jumping
1783088527065437700,7.041437744140625,0.8976431055985391,-3.1346003402531144,4.83223018707931,-0.0904648452997207,1.052509903907776,-0.2887619137763977,jumping
1783088527075481900,7.05148193359375,0.8452038933090865,-3.861707577100396,4.6790024498730896,0.1790267676115036,0.71473228931427,-0.4127097427845001,jumping
1783088527085525800,7.06152587890625,0.804809777469933,-4.14314785272181,5.690964739221334,0.3567655980587005,0.3216081261634826,-0.5338258147239685,jumping
1783088527095570700,7.07157080078125,0.6210151986949145,-4.076734767876565,7.004361459949612,0.4449716806411743,-0.0852965861558914,-0.6320841312408447,jumping
1783088527105614800,7.08161474609375,0.483499994405359,-3.733734400399029,8.320855562171339,0.4988144338130951,-0.4917524755001068,-0.6895657777786255,jumping
1783088527115658800,7.09165869140625,0.4948946641229093,-3.0862057271793484,9.609714053970574,0.503721296787262,-0.8594620823860168,-0.6877567172050476,jumping
1783088527125703000,7.101702880859375,0.737495213740319,-2.282533575437218,10.515139630138874,0.4582374095916748,-1.0753450393676758,-0.5999627113342285,jumping
1783088527135747600,7.11174755859375,1.2201279237918554,-1.4063392083197832,10.895015730071067,0.3371127247810364,-1.1662758588790894,-0.432522177696228,jumping
1783088527145791700,7.121791748046875,2.012666248709708,-0.3640674131646752,11.0215881000638,0.163179263472557,-1.2405109405517578,-0.2186024039983749,jumping
1783088527155836000,7.1318359375,3.076733842217922,0.4417847129650413,11.133028367376326,0.0150314383208751,-1.2629319429397583,0.0281581934541463,jumping
1783088527165880600,7.141880615234375,3.525779339966178,1.0531561772629618,10.756785655510424,-0.0875005275011062,-1.1810661554336548,0.2315547317266464,jumping
1783088527175924700,7.1519248046875,3.1477696184277533,1.221611878739297,10.224027855330704,-0.1154312193393707,-1.0401233434677124,0.3640190362930298,jumping
1783088527185969000,7.161968994140625,2.353107433223724,0.9324252267748117,10.120276388955116,-0.0961717665195465,-0.9239062070846558,0.3889733850955963,jumping
1783088527196013600,7.172013671875,1.5468975796975195,0.5857327267810702,10.462937149214744,-0.0770473256707191,-0.8890122175216675,0.3713129460811615,jumping
1783088527206057700,7.1820576171875,0.6119995330683886,0.8681682970501482,10.445206262212992,-0.0467685088515281,-0.9173120260238647,0.3626901507377624,jumping
1783088527216102000,7.192101806640625,-0.1490498669996857,1.8091648066848516,10.289093324959277,-0.0823021307587623,-1.0429999828338623,0.3588270843029022,jumping
1783088527226145800,7.202145751953125,-0.5865041495449841,2.237365377064049,10.013042341160771,-0.2705931961536407,-1.1034835577011108,0.3057164549827575,jumping
1783088527236190700,7.212190673828125,-0.696959205212444,2.3168058473952113,8.4677786462754,-0.5729045867919922,-1.1744757890701294,0.1788704395294189,jumping
1783088527246235000,7.22223486328125,0.1002608477808535,2.1083751322746274,6.833122265234589,-0.8348326086997986,-1.1058205366134644,0.0638663470745086,jumping
1783088527256278800,7.23227880859375,1.1593711111426352,2.263128763873875,3.987169355502724,-0.985876202583313,-0.7950156331062317,0.1483143419027328,jumping
1783088527266323700,7.24232373046875,1.675107341633737,3.23619550537765,1.0880161859810351,-0.9557400941848756,-0.6621739864349365,0.412412017583847,jumping
1783088527276368000,7.252367919921875,1.2808283300787209,3.293524243274331,-0.8592384100109338,-0.8634477257728577,-0.8303607106208801,0.5760740041732788,jumping
1783088527286411800,7.262411865234375,-0.8381020984798669,0.9239975901693104,-3.630134032931924,-0.9946044087409972,-0.9342498183250428,0.424389123916626,jumping
1783088527296456700,7.272456787109375,-3.121344845099747,-3.000773761348426,-10.287227531087398,-1.598893404006958,-0.1317821145057678,0.2946116924285888,jumping
1783088527306500600,7.28250048828125,-6.112972007918358,-3.974792104488611,-23.6362274821043,-2.2424044609069824,1.7673685550689695,0.1144277825951576,jumping
1783088527316544800,7.292544677734375,-7.573381244599819,-3.679753219364583,-37.57780871062278,-1.5452574491500854,2.8789238929748535,-0.1163186058402061,jumping
1783088527326589000,7.3025888671875,-6.173171917337179,-1.981960290931165,-37.501827879226205,0.4798965752124786,2.2044968605041504,-0.2424318045377731,jumping
1783088527336633600,7.312633544921875,-4.193722440183162,0.7020999291017651,-27.37687999132871,1.9923747777938845,1.2508727312088013,-0.2802298665046692,jumping
1783088527346677800,7.322677734375,-4.015502885061502,3.907371596166491,-19.631509025907516,2.00940203666687,0.4579668343067169,-0.19341641664505,jumping
1783088527356722000,7.332721923828125,-2.3945319150239226,5.565787038457393,-12.55428749693036,0.9959917068481444,-0.1957334131002426,0.0919830724596977,jumping
1783088527366766600,7.3427666015625,-1.722930730690807,5.418997225344181,-9.022494595763089,-0.1620519161224365,-0.4986203014850616,0.2825655341148376,jumping
1783088527376810800,7.352810791015625,-3.508182308477163,3.8002600057080382,-11.234856756734848,-0.6700278520584106,-0.6956999897956848,0.1766382455825805,jumping
1783088527386855000,7.36285498046875,-4.625697268404067,1.8720532245352863,-15.75831267106533,-0.6373069286346436,-0.7483307123184204,0.0146216489374637,jumping
1783088527396899600,7.372899658203125,-4.5496161915034055,1.6124290594026445,-21.167384714722633,-0.2203676998615265,-0.1829235702753067,-0.0744434744119644,jumping
1783088527406943700,7.38294384765625,-4.3507694434165955,2.4549738165050745,-25.07095516504049,0.0771238952875137,0.608607828617096,-0.1288968622684478,jumping
1783088527416988000,7.39298779296875,-3.767710027498006,2.868300935140252,-24.64090136801004,0.0919508934020996,1.343428373336792,-0.2087894529104232,jumping
1783088527427031800,7.40303173828125,-2.9061703548073767,2.658287480872869,-21.95783600423336,0.0500279441475868,1.808960556983948,-0.2723426222801208,jumping
1783088527437076700,7.41307666015625,-2.9304905570715665,2.8807202717304228,-17.967254794460533,0.1900112330913543,1.933384895324707,-0.3237740397453308,jumping
1783088527447120600,7.42312060546875,-3.195373081123829,3.172776049390435,-13.615121076953413,0.432617723941803,1.6314016580581665,-0.4030472636222839,jumping
1783088527457164800,7.433164794921875,-2.7528397417485713,3.0226477395042775,-10.075728806698322,0.6168372631072998,1.1368107795715332,-0.5752295255661011,jumping
1783088527467209700,7.443209716796875,-1.9940262840390204,2.411906243672967,-8.084530439561606,0.7661740183830261,0.6512704491615295,-0.7454404234886169,jumping
1783088527477253600,7.453253662109375,-1.19931032282114,1.8536714724093677,-7.152882626900077,1.0168449878692627,0.4229239821434021,-0.8621946573257446,jumping
1783088527487297800,7.4632978515625,-0.5192144279956817,1.8445035388305784,-5.984799216991663,1.274735927581787,0.2852153778076172,-0.9211693406105042,jumping
1783088527497342000,7.473342041015625,0.4621111694179475,1.855433513645828,-2.212432303598523,1.4329129457473757,-0.0206897817552089,-0.9205099940299988,jumping
1783088527507386600,7.48338671875,2.097437850935757,1.390338652241975,2.985544335773587,1.3975181579589844,-0.4494771063327789,-0.8627015352249146,jumping
1783088527517430800,7.4934306640625,3.3170313755899667,0.9604114042006432,7.738453148856759,1.1375010013580322,-0.9608293771743774,-0.7510147094726562,jumping
1783088527527475000,7.503474853515625,3.4007220507115123,0.7183167582787573,11.85550911346674,0.7375847101211548,-1.550613522529602,-0.5840011835098267,jumping
1783088527537519600,7.51351953125,2.562736856609583,0.7583372184999286,14.911410595536232,0.3632450103759765,-1.982208490371704,-0.391667366027832,jumping
1783088527547563800,7.523563720703125,1.888578681270033,0.7705502188630402,15.721377901899814,0.0934034287929534,-2.290632486343384,-0.2492004930973053,jumping
1783088527557608000,7.53360791015625,2.037626502443105,0.8120952583029866,15.64094535179138,-0.0518179945647716,-2.5491714477539062,-0.105272926390171,jumping
1783088527567652600,7.543652587890625,2.6431717448055743,1.0537008055336772,14.972855536580084,-0.166724607348442,-2.685999870300293,0.080749936401844,jumping
1783088527577696800,7.55369677734375,2.9760321188017724,1.2105971482500433,14.26696001458764,-0.2647728323936462,-2.675490379333496,0.2555992901325226,jumping
1783088527587741000,7.563740966796875,2.9243603837534784,0.9786877962559462,13.74231537823677,-0.3511426150798797,-2.484046936035156,0.3777398467063904,jumping
1783088527597784800,7.573784912109375,2.8104645399823784,0.255295926669985,13.338609489905831,-0.4178705513477325,-2.129047393798828,0.4490251541137695,jumping
1783088527607829800,7.583829833984375,2.70592806070894,-0.5371269551746547,12.775725431531669,-0.4815509915351867,-1.5609431266784668,0.4531660974025726,jumping
