time,seconds_elapsed,accel_x,accel_y,accel_z,gyro_x,gyro_y,gyro_z,label
1783086874545104100,0.050104248046875,0.0378640859048813,-0.1633005106702446,-0.2451490650564432,-0.0331367701292037,0.0055217761546373,-0.1454492062330246,jumping
1783086874555149000,0.060149169921875,-0.0934375045668333,-0.296659910454601,-0.2619248432904482,0.0208878330886364,0.0107120275497436,-0.1425327956676483,jumping
1783086874565193000,0.07019287109375,-0.1206622691661119,-0.3388108068332076,-0.1464730022490024,0.0376897156238555,0.0095237251371145,-0.1301626712083816,jumping
1783086874575237000,0.080237060546875,-0.0614775281392037,-0.3304021671891212,-0.0231803845793008,0.0227760281413793,-0.0060113556683063,-0.1112004145979881,jumping
1783086874585282000,0.090281982421875,-0.0490690052039921,-0.3311715441264212,0.0063128364086151,0.0080958865582942,-0.0280391611158847,-0.0962387770414352,jumping
1783086874595326000,0.100325927734375,-0.0685702628791332,-0.286700826498121,-0.0637614012926817,0.0170778036117553,-0.0052805906161665,-0.0948122441768646,jumping
1783086874605370000,0.1103701171875,-0.1030541317611932,-0.2395167582578957,-0.2104997764796018,0.034391812980175,0.0152457235381007,-0.1055628955364227,jumping
1783086874615415000,0.1204150390625,0.0027637656249105,-0.1815906389899551,-0.0847784703582525,0.0337526053190231,0.0010817917063832,-0.1230069100856781,jumping
1783086874625459000,0.130458984375,0.2343906474158167,-0.1002314755558967,0.1965501615822315,-0.0130407297983765,-0.0336191989481449,-0.1315338164567947,jumping
1783086874635503000,0.140503173828125,0.3281502966091036,-0.0479842787072062,0.3506985207647085,-0.080605924129486,-0.0915703848004341,-0.1073842793703079,jumping
1783086874645548000,0.150548095703125,0.2791565485984086,-0.0404293332830071,0.3624626083165407,-0.1072220876812934,-0.1475588083267212,-0.0632884576916694,jumping
1783086874655592000,0.160592041015625,0.0960156844917684,-0.0584971971541643,0.0765495711952447,-0.0655991062521934,-0.1691478192806244,-0.0360875576734542,jumping
1783086874665636000,0.170635986328125,-0.1298676121458411,-0.2091601984389126,-0.2141962929099798,0.0174760706722736,-0.1484033912420272,-0.0426666289567947,jumping
1783086874675681000,0.180680908203125,-0.2750925870951265,-0.4050190167561173,-0.3411994555354118,0.0878786593675613,-0.0983046367764473,-0.0691327899694442,jumping
1783086874685725000,0.190724853515625,-0.2963075168203562,-0.4180464022420346,-0.3106108405262232,0.1167784854769706,-0.0141319707036018,-0.0894335359334945,jumping
1783086874695769000,0.20076904296875,-0.2906293250534683,-0.2498736093603074,-0.0978553940743207,0.0913024991750717,0.0531267933547496,-0.1043439656496048,jumping
1783086874705814000,0.21081396484375,-0.2216719625528901,-0.1324491530716419,0.2600315768897533,0.0245066918432712,0.0906728357076644,-0.1081621423363685,jumping
1783086874715858000,0.22085791015625,-0.1975094350684434,-0.1969584501221775,0.4517296222656965,-0.0376521423459053,0.1083477437496185,-0.1106331497430801,jumping
1783086874725902000,0.230902099609375,-0.2945554855212569,-0.3988802217401564,0.4220066841751337,-0.0505602173507213,0.0985997691750526,-0.1275378316640854,jumping
1783086874735946000,0.240946044921875,-0.2744380687091499,-0.5388264525689185,0.2506587683886289,-0.0120492037385702,0.0542671717703342,-0.1609635800123214,jumping
1783086874745991000,0.250990966796875,-0.0100680972889065,-0.5960694118782878,-0.0128489601790904,0.0496397241950035,-0.0191644355654716,-0.2002902179956436,jumping
1783086874756035000,0.26103515625,0.3426341645136475,-0.5413225071683526,-0.2454495093077421,0.0969172120094299,-0.0620950609445571,-0.2041488885879516,jumping
1783086874766079000,0.271078857421875,0.4197945610836148,-0.3193111565932631,-0.3277624663352966,0.1089549660682678,-0.0581360086798667,-0.1771439015865326,jumping
1783086874776124000,0.2811240234375,0.2298857372120022,-0.1651494995377957,-0.2158060661941766,0.0894439443945884,-0.0296523477882146,-0.1399812549352646,jumping
1783086874786168000,0.29116796875,0.0396139252468943,-0.0837606716178357,0.045959202620387,0.0578777603805065,-0.0283327531069517,-0.1163670048117637,jumping
1783086874796212000,0.3012119140625,0.0655009384363889,-0.0728013245776295,0.3234726601868867,0.0444656312465667,-0.0915233939886093,-0.0885294526815414,jumping
1783086874806257000,0.3112568359375,0.189662594025582,-0.1005792660802602,0.3789274209052324,0.053115576505661,-0.1664024293422699,-0.0517674423754215,jumping
1783086874816301000,0.321301025390625,0.1884421123199164,-0.1281298285678029,0.1866629738181829,0.0671387985348701,-0.2418179363012313,-0.0195087492465972,jumping
1783086874826345000,0.331344970703125,0.1094670675434172,-0.1898218762405216,0.0232189630240201,0.0725005343556404,-0.2937415838241577,0.0153040923178195,jumping
1783086874836390100,0.34139013671875,-0.0341107247207313,-0.1659501483961939,-0.1139098722964525,0.0789982751011848,-0.3201058208942413,0.0451508276164531,jumping
1783086874846434000,0.35143408203125,-0.1151147911068052,-0.1692844073854386,-0.1230932957053184,0.0742258951067924,-0.3284348547458648,0.0722120106220245,jumping
1783086874856478000,0.36147802734375,-0.0870708190791308,-0.2003464851252734,-0.0724473965734243,0.0584478490054607,-0.3224902153015136,0.0916521325707435,jumping
1783086874866523100,0.371523193359375,-0.0148055010743439,-0.174803316937387,-0.0144604870289564,0.078592263162136,-0.3259062469005584,0.116906352341175,jumping
1783086874876567000,0.381567138671875,0.1204049334041774,-0.0900780380710959,-0.0375695599377155,0.1327195763587951,-0.2753013968467712,0.1523817032575607,jumping
1783086874886611000,0.39161083984375,0.0870397663537412,-0.0135439567059278,-0.0865010563671588,0.1659883111715316,-0.2298468500375747,0.1848522871732711,jumping
1783086874896656100,0.40165625,0.0883870162442326,0.0527943093374371,0.1353407828599214,0.1583156585693359,-0.2124919146299362,0.1984734535217285,jumping
1783086874906700000,0.411699951171875,0.0819248344928026,0.0076480305351316,0.2684989609837532,0.130683496594429,-0.1949406117200851,0.2027371674776077,jumping
1783086874916744000,0.421743896484375,0.0925586028404533,-0.0272986335530877,0.2262859591543674,0.1081553101539611,-0.1645934432744979,0.192827045917511,jumping
1783086874926788000,0.4317880859375,0.149965958931297,-0.0405227106548845,0.1463900001406669,0.0789281874895095,-0.1025955751538276,0.1741715967655182,jumping
1783086874936833000,0.4418330078125,0.2013978938743472,-0.0108026951737701,0.1520908421307802,0.0298851523548364,-0.0296816509217023,0.1565285772085189,jumping
1783086874946877000,0.451876953125,0.1761708058983087,0.0776681999616324,0.2847796491771936,-0.0220638010650873,0.034093864262104,0.1460503786802292,jumping
1783086874956921000,0.461921142578125,0.1571256214275956,0.1514819164521992,0.3593704875200986,-0.0498377829790115,0.0781353190541267,0.1413987427949905,jumping
1783086874966966000,0.471966064453125,0.1454550573781132,0.2278812655217945,0.2945972788363695,-0.0621173530817031,0.0887789130210876,0.1452020108699798,jumping
1783086874977010000,0.482010009765625,0.171441950745508,0.3048952393583953,0.2173959657341241,-0.0503607653081417,0.0608183220028877,0.1579266488552093,jumping
1783086874987054000,0.49205419921875,0.2897890748370438,0.3194640090674162,0.0613192688375711,-0.0211738515645265,0.0172902848571538,0.1708528399467468,jumping
1783086874997099000,0.50209912109375,0.391285674957931,0.2575179866336285,-0.0711345604091882,-0.0014167526969686,-0.0051800003275275,0.1821275055408477,jumping
1783086875007143000,0.512142822265625,0.3429016563434153,0.2282315402641892,-0.1573801807105541,-0.01430378947407,-0.0005482304841279,0.1797117441892624,jumping
1783086875017187000,0.52218701171875,0.1392735922642052,0.2614439279057085,-0.1078460422128438,-0.0528233759105205,0.0463165491819381,0.1707508713006973,jumping
1783086875027232000,0.53223193359375,-0.0755354987818747,0.240293880110234,-0.0170528416097164,-0.0963436886668205,0.1161182671785354,0.1529609560966491,jumping
1783086875037276000,0.54227587890625,-0.2512275812525302,0.2248493504799902,0.0658387920886278,-0.1260200440883636,0.1956939548254013,0.145746499300003,jumping
1783086875047320000,0.552320068359375,-0.3238327987361699,0.3140441759757697,0.0999310313045978,-0.1211102381348609,0.2406710237264633,0.1485052555799484,jumping
1783086875057365000,0.562364990234375,-0.2734516149550676,0.3747562727004289,0.1306856505304575,-0.0797540619969368,0.2660366594791412,0.1692464500665664,jumping
1783086875067409200,0.5724091796875,-0.2016981919951737,0.3416773021802306,0.0225175367563962,-0.0343666039407253,0.259924978017807,0.198866918683052,jumping
1783086875077453000,0.582453125,-0.0680156246710568,0.2086784062713384,-0.0341249724417924,-0.0042533483356237,0.2769250869750976,0.2296124100685119,jumping
1783086875087498000,0.592498046875,0.0312114230826497,0.0751014182135462,-0.143956050992012,0.0016559397336095,0.3490512073040008,0.2600864470005035,jumping
1783086875097542100,0.602542236328125,0.0753835961557924,0.1308591074012219,-0.1051373677760362,-0.0420389175415039,0.3953483700752258,0.2858036756515503,jumping
1783086875107585800,0.612585693359375,0.1692342115681618,0.2295278636850416,0.1091740759462118,-0.0939851999282836,0.4575901925563812,0.317464143037796,jumping
1783086875117630000,0.6226298828125,0.1420096661645919,0.2986056376948952,0.197464938339591,-0.1385690867900848,0.5347992181777954,0.3387056291103363,jumping
1783086875127675100,0.632675048828125,0.0162033851735293,0.5133797304928303,0.4480313522696494,-0.1940155625343322,0.544018566608429,0.3770855069160461,jumping
1783086875137719000,0.642718994140625,0.0906860139016062,0.7800644816614687,0.8039782950818538,-0.2289829701185226,0.4190651178359985,0.466272234916687,jumping
1783086875147763000,0.652762939453125,0.4121158431492746,0.8865656851366162,0.8768108915805816,-0.2130799144506454,0.1775867044925689,0.6022263765335083,jumping
1783086875157808000,0.66280810546875,0.6022702392797917,0.7515316301383078,0.5559826084226369,-0.1187801733613014,-0.1055227145552635,0.7592645883560181,jumping
1783086875167852000,0.67285205078125,0.305653071988374,0.5452227294772863,0.1301496439576148,0.0549809634685516,-0.2745495438575744,0.8402997851371765,jumping
1783086875177896000,0.68289599609375,-0.3969505688518285,0.3030919893287122,0.0073421794563531,0.1792218834161758,-0.3605229258537292,0.8366748690605164,jumping
1783086875187941000,0.692941162109375,-0.7705377977728843,0.1664106055147945,0.5988976210415363,0.1984192878007888,-0.3909972012042999,0.7954160571098328,jumping
1783086875197985000,0.702985107421875,-0.8510331839844584,0.1871858286485075,1.2826795109033584,0.1089370772242546,-0.2987073063850403,0.7717685699462891,jumping
1783086875208029000,0.71302880859375,-1.1129879109565168,0.4738191428683698,2.328584986385703,-0.0389959290623664,-0.3522986173629761,0.7074745297431946,jumping
1783086875218074000,0.72307421875,-0.8256297895934432,0.4267933339297771,4.026965359318256,-0.155086487531662,-0.5586150884628296,0.6111398339271545,jumping
1783086875228118000,0.733117919921875,-0.6468128531005233,0.0094683778300881,5.212605468705296,-0.2337860912084579,-0.8149108290672302,0.4644425511360168,jumping
1783086875238162000,0.743161865234375,-0.6035355830404907,-0.8451587389931082,5.842689670649171,-0.2744812369346618,-1.0948481559753418,0.1818146556615829,jumping
1783086875248207000,0.75320703125,-0.7808592122357338,-1.9953492032058535,6.000480185726285,-0.253701388835907,-1.326472282409668,-0.1475877314805984,jumping
1783086875258251000,0.7632509765625,-1.294812870159,-2.7421841999605294,5.403175386834144,-0.1745493561029434,-1.415992259979248,-0.3876975774765014,jumping
1783086875268295200,0.773295166015625,-1.0592907344952225,-2.626107797279954,4.621922718301415,-0.0554631799459457,-1.4733415842056274,-0.5092993974685669,jumping
1783086875278340000,0.783340087890625,-0.2275985030576586,-2.1050771136425435,4.057071159246564,0.0854548886418342,-1.507334589958191,-0.6156968474388123,jumping
1783086875288384000,0.793384033203125,0.4709823120072484,-1.883433427336067,3.248422534266114,0.2540857195854187,-1.5205343961715698,-0.683183491230011,jumping
1783086875298428200,0.80342822265625,0.9869980900920928,-1.9341564833573996,1.9151503157228231,0.4949113130569458,-1.360669732093811,-0.7063665986061096,jumping
1783086875308473000,0.81347314453125,0.9792403155721724,-1.9439682677976784,1.2460779192149638,0.6903063654899597,-1.1499111652374268,-0.6968647241592407,jumping
1783086875318517000,0.82351708984375,0.7532349269248545,-1.849644847241789,1.4622124867111443,0.8240795731544495,-0.8984995484352112,-0.6824978590011597,jumping
1783086875328561200,0.83356103515625,0.8358949438244104,-1.9688205311119555,1.845357817572355,0.8248021006584167,-0.6955773234367371,-0.6461555361747742,jumping
1783086875338604800,0.843604736328125,1.2976052773565052,-1.874607000671327,2.371623917645216,0.6446623802185059,-0.4322730004787445,-0.6038221716880798,jumping
1783086875348650200,0.853650146484375,1.4822165793418884,-1.7368163404412569,2.2558114265978335,0.3424519598484039,-0.1659105718135833,-0.5071504712104797,jumping
1783086875358694100,0.863694091796875,1.3329473705030976,-1.3192112522259354,1.960602153342962,0.0531095750629901,0.0928925797343254,-0.3536683022975921,jumping
1783086875368738000,0.873738037109375,0.797693661854416,-1.3160394903220236,0.8443202423423528,-0.1167846545577049,0.4400731921195984,-0.2235686331987381,jumping
1783086875378783200,0.883783203125,0.4766279166787862,-1.734171525020897,-1.024524249279499,-0.1584052145481109,0.6367697715759277,-0.0891688838601112,jumping
1783086875388827100,0.8938271484375,0.2012795281916856,-2.308699113307148,-2.4802684167593716,0.1215510740876197,0.5954486727714539,-0.0471652410924434,jumping
1783086875398871300,0.903871337890625,-0.1206476561188697,-3.294105550293624,-4.372907625466585,0.6997667551040649,0.5353581309318542,-0.0465708039700984,jumping
1783086875408916000,0.913916015625,-0.1770199700735509,-3.069999565526843,-5.972575110712647,1.080437421798706,0.4193394184112549,0.0759559050202369,jumping
1783086875418960100,0.923960205078125,-0.2313354976288974,-1.5769824829682706,-5.599058608940243,1.1968402862548828,0.2928093373775482,0.1847423762083053,jumping
1783086875429004300,0.93400439453125,-0.810700442943722,-0.3123630910210311,-4.742825810486078,1.0690101385116575,0.1062511503696441,0.2584551870822906,jumping
1783086875439049000,0.944049072265625,-1.2207136147253217,0.8043567730054259,-3.768223237717152,0.7447090744972229,-0.279348611831665,0.3116913437843323,jumping
1783086875449093000,0.954093017578125,-0.9229287918940186,1.6008321451112626,-3.80291519639194,0.4232825636863708,-0.6435925960540771,0.305062472820282,jumping
1783086875459137300,0.96413720703125,-0.770404965173453,1.807743980101496,-6.004118834489583,0.1986618936061859,-0.8183218836784363,0.2793200016021728,jumping
1783086875469182000,0.974181884765625,-0.5471291476204991,2.044316355470568,-9.2407468860656,0.0244408342987298,-0.755427360534668,0.2805748879909515,jumping
1783086875479226000,0.98422607421875,-1.0429302590638398,2.063612592092902,-12.182878781092166,-0.1087377071380615,-0.5026383399963379,0.2439343184232711,jumping
1783086875489270300,0.994270263671875,-2.5967104378819466,1.4873860909342764,-14.29116740412712,-0.241340771317482,-0.127008780837059,0.1138439625501632,jumping
1783086875499314200,1.004314208984375,-3.390800960677862,0.7114931958690285,-14.435822543299198,-0.3544045686721802,0.2815493941307068,-0.0557017475366592,jumping
1783086875509359000,1.014359130859375,-4.18425201652646,0.3337587841406464,-14.505633161628246,-0.3753330111503601,0.7667770981788635,-0.2208193391561508,jumping
1783086875519403300,1.0244033203125,-4.477391790030897,0.7107925002537667,-15.03204188504219,-0.3009470403194427,1.3561794757843018,-0.2710314989089966,jumping
1783086875529447200,1.034447265625,-4.067513642805815,1.2490750552043317,-15.422960772514342,-0.1615859568119049,1.9520817995071411,-0.2125655561685562,jumping
1783086875539492000,1.0444921875,-3.0521292700543996,1.334289432761818,-15.407274543082714,-0.0060280784964561,2.512155294418335,-0.136710450053215,jumping
1783086875549536000,1.054535888671875,-1.5565065350420773,1.151662290330976,-14.42806009260416,0.0149403205141425,2.80415940284729,-0.087400697171688,jumping
1783086875559580200,1.064580078125,-0.130444973642379,1.400691703952104,-12.35902094541788,-0.0881436243653297,2.7564127445220947,0.000742296455428,jumping
1783086875569625000,1.074625,-0.0142917793985456,1.7270837587170302,-10.478803411388396,-0.1717607527971267,2.450120210647583,0.1069606095552444,jumping
1783086875579669000,1.0846689453125,-0.3490153169181197,2.085002878385037,-8.626160112982987,-0.0805022343993187,1.8727834224700928,0.2960626184940338,jumping
1783086875589713200,1.094713134765625,-0.3341129678731784,2.5696605183929204,-6.397080625966191,0.1262038052082061,1.2444137334823608,0.5486399531364441,jumping
1783086875599758000,1.104758056640625,-0.057187064403668,3.3583915599823,-3.6174668590605257,0.213985726237297,0.6195504665374756,0.8343871831893921,jumping
1783086875609802000,1.114802001953125,0.5015546700013801,4.333120974001289,-0.3506704637140035,0.1196568310260772,0.1052966862916946,1.095461368560791,jumping
1783086875619846100,1.12484619140625,0.8298794098619371,4.7963563251435755,2.833831679305434,-0.1062365621328353,-0.2922520935535431,1.261014699935913,jumping
1783086875629891000,1.13489111328125,0.5914146448750048,4.2786224910944695,5.501370388126373,-0.3082647621631622,-0.5237582921981812,1.2213047742843628,jumping
1783086875639935000,1.14493505859375,-0.3498801170539111,2.408428776820749,6.835546862033009,-0.3567880392074585,-0.615865170955658,0.8843289613723755,jumping
1783086875649979100,1.154979248046875,-1.1988327684372664,-0.0021184534586966,8.087181830853224,-0.2790687382221222,-0.7197132706642151,0.3726363182067871,jumping
1783086875660024000,1.165024169921875,-0.558302904596366,-0.8606018073186278,9.368765947735309,-0.1447194069623947,-0.9756559729576112,-0.1490776538848877,jumping
1783086875670068000,1.17506787109375,-0.0836115454707294,-0.9698848965972662,9.70000924192369,0.0179049354046583,-1.0689080953598022,-0.5092307925224304,jumping
1783086875680112000,1.185112060546875,-0.5977938975833356,-0.9598648762337862,10.85895891278386,0.0074272328056395,-1.1249619722366333,-0.7866155505180359,jumping
1783086875690156300,1.19515625,-0.7231519964154809,-0.9959732775777578,13.422787656283376,-0.1152219846844673,-1.2938244342803955,-0.99587744474411,jumping
1783086875700201000,1.205200927734375,-0.6107653150983154,-1.2940132442139087,14.965972206807136,-0.2111026048660278,-1.4476524591445925,-1.132797360420227,jumping
1783086875710245000,1.2152451171875,-0.3193682936079799,-1.5460430086947976,15.175447316414116,-0.2447337955236435,-1.6733345985412598,-1.184589147567749,jumping
1783086875720289000,1.2252890625,0.2214193760313093,-1.9439691445805132,14.642034851717948,-0.2088301181793213,-1.947332501411438,-1.1314231157302856,jumping
1783086875730334000,1.235333984375,1.2218468565389513,-2.249738974816352,12.98858959905505,-0.0691217631101608,-2.133711814880371,-0.9699416160583496,jumping
1783086875740378000,1.245378173828125,2.3731904363095757,-2.0854083904460072,10.494171660912036,0.173371136188507,-2.2027971744537354,-0.720758855342865,jumping
1783086875750422000,1.255422119140625,2.9656884194418787,-2.2604572065770623,7.948646635866164,0.4920700192451477,-2.0562705993652344,-0.4501387774944305,jumping
1783086875760467000,1.265467041015625,3.3822035204634067,-2.663073546105623,6.088950496339797,0.6909394264221191,-1.6435730457305908,-0.207483559846878,jumping
1783086875770511000,1.275510986328125,3.180609227234125,-2.2109784515284,5.542676796504855,0.6787552237510681,-1.0060548782348633,-1.45186204463e-05,jumping
1783086875780555000,1.285554931640625,2.369869182932377,-1.5847442030109464,6.565234714147448,0.5133205056190491,-0.3763505518436432,0.1147989258170127,jumping
1783086875790600000,1.295599853515625,2.309435464757681,-1.0511932066269218,8.264908634021877,0.2775020897388458,0.1341220140457153,0.1940615326166153,jumping
1783086875800644000,1.30564404296875,2.174431366506219,-0.6676623835794627,9.706137369415163,0.0441636852920055,0.4965803027153015,0.2488691657781601,jumping
1783086875810688000,1.31568798828125,2.368783433522284,-0.4561569371886551,11.002366682243348,-0.1951823234558105,0.6944688558578491,0.2519107460975647,jumping
1783086875820733200,1.325733154296875,2.6075141559690236,-0.8194134723618626,11.818423537653684,-0.3866640031337738,0.7103655338287354,0.1955069899559021,jumping
1783086875830777000,1.335777099609375,2.806951855686307,-1.199141834386438,12.067524555206298,-0.4549857974052429,0.5384590029716492,0.1331927478313446,jumping
1783086875840821000,1.345821044921875,2.4958558619916436,-1.325771341393888,11.292867047154903,-0.3256494402885437,0.2887563705444336,0.0523977316915988,jumping
1783086875850866200,1.3558662109375,1.682182394586503,-1.6909740421988069,9.773704008209704,-0.1189196929335594,0.221260130405426,-0.0195491667836904,jumping
1783086875860910000,1.36591015625,1.096870377435535,-1.5420545235805212,8.925766159892081,0.0127884428948163,0.1969179958105087,-0.0721424371004104,jumping
1783086875870954000,1.3759541015625,1.2859395356126129,-1.009167251802236,8.794021355697511,0.0191467404365539,0.1125626340508461,-0.0831183865666389,jumping
1783086875880998100,1.385998046875,2.149012409219891,-0.8621741712018847,8.647441970464588,-0.0230820067226886,-0.1288009285926818,-0.0609793215990066,jumping
1783086875891043000,1.39604296875,2.9833892035663125,-0.9482843285553156,7.944595314648747,0.087519071996212,-0.53713059425354,0.0053027612157166,jumping
1783086875901087000,1.4060869140625,3.4764807637900113,-1.2274607508979738,7.246261752343178,0.3404825031757355,-1.0505881309509275,0.052142608910799,jumping
1783086875911131100,1.416131103515625,2.7926515276551247,-1.441509890422225,6.826046043238043,0.5340991616249084,-1.4085692167282104,0.0257208570837974,jumping
1783086875921176300,1.42617626953125,0.4268868574321269,-0.9788424022957682,6.159894502612948,0.6183449029922485,-1.3997946977615356,0.0428866222500801,jumping
1783086875931220000,1.436219970703125,-2.0924635696545244,0.5957923485025763,5.55398787959218,0.5724247694015503,-1.165117263793945,0.1887639313936233,jumping
1783086875941264100,1.44626416015625,-2.5630758793056008,2.741500601610541,5.235712788048386,0.487598717212677,-1.172101616859436,0.4165756404399872,jumping
1783086875951309300,1.456309326171875,1.681920236518979,3.435057451033592,4.121557952204347,0.3589685559272766,-1.415374994277954,0.6440828442573547,jumping
1783086875961353000,1.46635302734375,5.388646510744095,3.970445307455957,1.3596943615227937,0.2736102938652038,-1.7283748388290403,0.9344292283058168,jumping
1783086875971397000,1.476397216796875,4.834341772405803,5.69679242246151,-0.464352956995368,0.1627418100833892,-1.811648726463318,1.62441086769104,jumping
1783086875981442300,1.4864423828125,-14.690405207133292,6.034903848853707,-3.5741356668561695,0.3974915146827698,-0.4802272319793701,1.63642680644989,jumping
1783086875991486000,1.49648583984375,-10.527084919476508,5.792906525826454,-10.881759942656757,-0.0351115688681602,1.5167864561080933,1.7187141180038452,jumping
1783086876001530000,1.506530029296875,-2.324421436965465,3.204977360293269,-23.958773675096033,-1.3337692022323608,4.553803443908691,1.3025466203689575,jumping
1783086876011575300,1.5165751953125,-0.945580476424098,-0.5072115632519125,-30.282610785675047,-1.5166765451431274,6.0389814376831055,0.5525267124176025,jumping
1783086876021619200,1.526619140625,1.350041420906037,-1.4927793282799422,-17.60964547139406,-0.7772207260131836,5.256598472595215,0.3676149547100067,jumping
1783086876031663000,1.5366630859375,1.9933451699070632,-0.2953700167745351,-9.703301269206404,0.0841291695833206,3.5995047092437744,0.5768799781799316,jumping
1783086876041707000,1.54670703125,-0.0848905524305999,1.0877008364215492,-5.229498151317238,0.6318137645721436,1.8739699125289917,0.7014865875244141,jumping
1783086876051752200,1.556752197265625,-2.474887015981972,-0.2350375670172274,-0.9666858082950116,0.5780232548713684,0.5087456107139587,0.5391680002212524,jumping
1783086876061796000,1.566796142578125,-3.592372457553446,-1.231546558906883,1.033584338569641,0.05795793607831,-0.5801777839660645,0.2621590197086334,jumping
1783086876071840000,1.576840087890625,-3.685711835508049,-2.037982037882507,0.700233258447051,-0.3447175920009613,-1.4566720724105835,-0.074768416583538,jumping
1783086876081885200,1.58688525390625,-2.2878942256875336,-3.281293122732639,-1.478490836817026,-0.3032821714878082,-2.263353109359741,-0.3638621568679809,jumping
1783086876091929000,1.59692919921875,-0.9851355110906064,-4.765656066453457,-3.9696541570782657,0.0167032852768898,-2.867459774017334,-0.7138673067092896,jumping
1783086876101973000,1.606972900390625,-0.4627279861420392,-7.277219785186648,-5.465523998719453,0.3240293562412262,-3.130394458770752,-1.1170320510864258,jumping
1783086876112018200,1.61701806640625,-0.4501281784184276,-6.390531058192253,-6.350645622527599,0.5272490382194519,-3.1027185916900635,-1.305362343788147,jumping
1783086876122062000,1.62706201171875,-1.2804729407697917,-3.377998177728057,-7.575894104203582,0.6415403485298157,-2.640230894088745,-1.1364635229110718,jumping
1783086876132106000,1.63710595703125,-2.0128844215050337,-0.15283245427832,-8.746677420720458,0.6214475631713867,-1.759501576423645,-0.6986960768699646,jumping
1783086876142151200,1.647151123046875,-1.8616738693401216,2.8921833305090665,-8.625899416220188,0.5083075165748596,-0.6779717803001404,-0.1473531126976013,jumping
1783086876152195300,1.6571953125,-0.812831171362102,4.678902788890898,-6.21625176512897,0.19734887778759,0.026274224743247,0.312913566827774,jumping
1783086876162239000,1.667239013671875,0.0827872965410351,4.347641082262992,-4.944928930020332,-0.0877822563052177,0.5969111919403076,0.7882683277130127,jumping
1783086876172284200,1.6772841796875,-0.1577916841208934,2.881045850422978,-4.6605391569435595,-0.1132524609565734,0.8474792242050171,1.0218515396118164,jumping
1783086876182328300,1.687328369140625,-0.6989715679481625,0.2386203939400613,-3.8253742809593674,0.054462868720293,0.9343990087509156,0.871897280216217,jumping
1783086876192372000,1.6973720703125,-2.3759739295482634,-2.774502122980356,-3.429496894297003,0.1572102904319763,0.90326189994812,0.435897558927536,jumping
1783086876202416000,1.707416015625,-3.76393635417819,-4.168314150421321,-3.1012860996723175,0.0973447412252426,0.689989447593689,-0.0137689933180809,jumping
1783086876212461000,1.7174609375,-3.4695050795584916,-3.754849961403012,-3.4902199508070946,-0.0267875920981168,0.3419995009899139,-0.2801007926464081,jumping
1783086876222505200,1.727505126953125,-2.7837130189180375,-2.803350031802058,-5.114012992528081,-0.1708595752716064,-0.0093638263642787,-0.3342442214488983,jumping
1783086876232549000,1.737549072265625,-2.2958714881770312,-1.9367276490196583,-7.768244476008415,-0.2639226913452148,-0.1339180022478103,-0.1976640373468399,jumping
1783086876242594000,1.747593994140625,-1.5318546166054905,-0.3156407975174486,-11.01314058971405,-0.2389847934246063,-0.1108012646436691,0.1104472354054451,jumping
1783086876252638200,1.75763818359375,-0.8025956085518002,0.4678966209515929,-12.73042147794962,-0.0208407528698444,-0.176541656255722,0.4527830183506012,jumping
1783086876262682000,1.76768212890625,-0.9894625805094838,0.2112377353653311,-13.427571383428573,0.2601852416992187,-0.0294690020382404,0.6960511803627014,jumping
1783086876272727000,1.77772705078125,-2.4980218078538776,-0.2332425002939999,-12.886229294776916,0.4015429019927978,0.2649857699871063,0.7502846121788025,jumping
1783086876282771200,1.787771240234375,-3.320302067823708,-0.4190237228415906,-11.027907950735091,0.4339034855365753,0.5744965672492981,0.6698790192604065,jumping
1783086876292815000,1.797815185546875,-2.85177094836086,-0.1864228814519941,-9.496848137769105,0.3812280297279358,0.8980927467346191,0.522582471370697,jumping
1783086876302860000,1.807860107421875,-2.383756692378968,0.1999577780686318,-8.654214825600386,0.2039837688207626,1.2828454971313477,0.353525847196579,jumping
1783086876312904200,1.817904296875,-2.310976702850312,0.5542357647553086,-8.037496301186085,-0.0463933125138282,1.6526615619659424,0.2190253138542175,jumping
1783086876322948000,1.827947998046875,-1.85469745445624,0.8104908918462693,-7.027763962846994,-0.2580202519893646,1.7628635168075562,0.1800944805145263,jumping
1783086876332993000,1.837992919921875,-0.3301262728571891,1.3146746317096054,-6.150616386657953,-0.3675909638404846,1.6775976419448853,0.2442279160022735,jumping
1783086876343037200,1.848037109375,0.4758509409569204,1.95541189122349,-6.119935417190193,-0.3580008447170257,1.5872331857681274,0.3881638944149017,jumping
1783086876353081600,1.85808154296875,0.4218482787430286,2.94385565007925,-5.618895528310537,-0.0857000797986984,1.357434868812561,0.5970462560653687,jumping
1783086876363125800,1.868125732421875,0.0317141119077801,3.3070670309364796,-4.025997975590825,0.3269248008728027,1.202243685722351,0.7555927634239197,jumping
1783086876373171000,1.8781708984375,-0.2185005659751594,3.5379639910176395,-1.2655997812867164,0.6278020739555359,1.0350069999694824,0.8051155805587769,jumping
1783086876383214600,1.888214599609375,0.2190181601084768,3.7637726880490776,1.811700462642312,0.7006164789199829,0.9128643274307252,0.7060527801513672,jumping
1783086876393258800,1.8982587890625,1.132024473729357,3.48585386455208,4.288232030960917,0.5665601491928101,0.8385426998138428,0.4948987364768982,jumping
1783086876403304000,1.908303955078125,1.8780588946908712,3.232769038060307,6.600089754429459,0.349271148443222,0.7342924475669861,0.2667997181415558,jumping
1783086876413347800,1.918347900390625,2.131225846508145,3.1149677112832665,9.139095606839655,0.1684398502111435,0.5373676419258118,0.0565593838691711,jumping
1783086876423391700,1.928391845703125,1.6392513076156376,2.7554671676427125,11.735339596253633,0.0428031273186206,0.2303804606199264,-0.1373168379068374,jumping
1783086876433437000,1.93843701171875,0.261447215841338,2.1431104916997255,14.09082837165594,0.0140764061361551,-0.1511543840169906,-0.3345580101013183,jumping
1783086876443480800,1.948480712890625,-1.0385269826035946,1.342201667191088,15.673271750378609,-0.0098113967105746,-0.6438761353492737,-0.5705511569976807,jumping
1783086876453524700,1.958524658203125,-1.9208933894194664,0.2160214625105261,16.419202345639466,-0.0574385710060596,-1.1138672828674316,-0.8445552587509155,jumping
1783086876463570000,1.96856982421875,-1.9779647915542125,-0.6014117958195507,15.9840713914752,-0.0878278985619545,-1.4688773155212402,-1.0761173963546753,jumping
1783086876473613800,1.97861376953125,-1.0529863005887716,-0.4997359666742384,14.477826286292077,-0.0513433963060379,-1.6982641220092771,-1.174244999885559,jumping
1783086876483657700,1.98865771484375,0.3423467258743941,-0.5203980848222971,12.55477031201124,0.0187935382127761,-1.81128990650177,-1.140493869781494,jumping
1783086876493703000,1.998702880859375,1.841276831869036,-0.8596480137251317,10.669932716965675,0.149863138794899,-1.749718427658081,-1.031722903251648,jumping
1783086876503746800,2.008746826171875,2.9755089717105028,-1.1423686845459042,8.919852551934122,0.2800107598304748,-1.535648226737976,-0.8816481232643127,jumping
1783086876513790700,2.018790771484375,3.077573215651512,-1.5712120828732847,7.411379249307513,0.3520596623420715,-1.1627732515335083,-0.7359582781791687,jumping
1783086876523834600,2.028834716796875,3.031500615784526,-2.090625540572405,6.779533298388123,0.3324994146823883,-0.7256656289100647,-0.6608743071556091,jumping
1783086876533879800,2.0388798828125,2.815131655010581,-1.898253541457653,7.031548742082714,0.2028457969427108,-0.2790204882621765,-0.6047742962837219,jumping
1783086876543924000,2.048924072265625,2.34611698981449,-1.5528049040451646,7.929944273483753,0.0322406366467475,0.0548645593225955,-0.5498520731925964,jumping
1783086876553967600,2.058967529296875,2.0968685266152023,-1.3086838668622076,9.12588482761085,-0.0768421664834022,0.1907835155725479,-0.4790758788585663,jumping
1783086876564012800,2.0690126953125,1.6906896722994744,-1.2337357395142317,9.787257901787758,-0.1070988923311233,0.238999530673027,-0.4059183597564697,jumping
1783086876574057000,2.079056884765625,1.076991372489184,-1.2023734367188066,10.373264477074146,-0.1421013474464416,0.2163914144039154,-0.36674565076828,jumping
1783086876584100600,2.0891005859375,0.7004882561214267,-1.5249213102109729,11.034635797685384,-0.1817243695259094,0.1308325082063675,-0.3721846044063568,jumping
1783086876594145800,2.099145751953125,0.8768634985506534,-1.7599030553877353,11.30469777020216,-0.1829113364219665,0.0305445119738578,-0.3992745280265808,jumping
1783086876604190000,2.10918994140625,1.158558333455026,-1.5767337689042091,10.830193421548604,-0.1740539968013763,0.0202366467565298,-0.4236955046653747,jumping
1783086876614233900,2.11923388671875,1.5046894001737237,-1.3784234657816588,10.227458998823163,-0.1547546088695526,0.0625782459974289,-0.4355300664901733,jumping
1783086876624278800,2.12927880859375,1.746196455466002,-1.184875920081511,9.571596212500332,-0.1052499860525131,0.1628672033548355,-0.4212761223316192,jumping
1783086876634323000,2.139322998046875,1.685818120740354,-0.848178671336174,8.964533405181765,-0.0559748485684394,0.2759349048137665,-0.3796916604042053,jumping
1783086876644366800,2.149366943359375,1.762127891830355,-0.5500649818766862,8.60856951123476,-0.0127982720732688,0.3391768336296081,-0.3298827409744262,jumping
1783086876654411800,2.159411865234375,2.1734185362018645,-0.3251676275365054,8.477250238975882,-0.0087012657895684,0.2474455684423446,-0.2655024230480194,jumping
1783086876664456000,2.1694560546875,2.0621005800947545,-0.1992231801837682,8.385015022870897,0.0575027726590633,0.0514736771583557,-0.1992190331220626,jumping
1783086876674499800,2.179499755859375,1.608509840132296,-0.1799943097092211,8.66951877771616,0.1524692326784134,-0.2809814810752868,-0.1592942625284195,jumping
1783086876684543700,2.189543701171875,0.7824547377988695,-0.3666766458149999,9.112949358192086,0.2153864949941635,-0.6213017106056213,-0.2210965454578399,jumping
1783086876694588700,2.199588623046875,-0.6868092748589814,0.0335895503908395,8.291848078873754,0.2532582581043243,-0.7045177221298218,-0.2595129013061523,jumping
1783086876704632800,2.2096328125,-2.532004449215531,1.6009595708832145,6.652983140227199,0.2229529023170471,-0.563152551651001,-0.1754570603370666,jumping
1783086876714676700,2.2196767578125,-3.3572093644604086,4.4297059097483755,4.458611978498101,0.08179472386837,-0.3583765029907226,0.1331143677234649,jumping
1783086876724721700,2.2297216796875,1.2254732303425668,6.713881553304195,2.82583834246397,-0.1347652673721313,-0.5555108785629272,0.5383207201957703,jumping
1783086876734765800,2.239765869140625,6.085618721568584,6.688654173067212,0.4929349083572625,-0.2385076433420181,-1.1724611520767212,0.9442586302757264,jumping
1783086876744810000,2.24981005859375,-4.405115950632095,5.53891948979795,-4.730218257847428,-0.1067061573266983,-0.7231582999229431,1.3170183897018433,jumping
1783086876754854700,2.259854736328125,-13.757170417541264,4.662987719139457,-12.247561973404885,0.2410081326961517,0.6396427154541016,1.525280237197876,jumping
1783086876764898800,2.26989892578125,0.5512003425821662,6.103869833052158,-17.829706272423266,-0.3729493319988251,2.122823476791382,1.7774826288223269,jumping
1783086876774943000,2.27994287109375,5.446981210812926,0.4378483964294195,-27.315208255791664,-1.2345691919326782,4.196897983551025,1.0401699542999268,jumping
1783086876784987600,2.289987548828125,1.2933831296168268,-6.516904690742492,-26.47659470065832,-1.1119502782821655,4.860950469970703,0.0985640063881874,jumping
1783086876795031800,2.30003173828125,1.5213874369964002,-7.003558326873183,-16.896833886402845,-0.1709835827350616,4.101500034332275,-0.2190187573432922,jumping
1783086876805076000,2.310075927734375,1.0512103038921952,-2.4077330496415494,-10.083732080411911,0.4607009291648865,2.6411056518554688,-0.0955657809972763,jumping
1783086876815119600,2.32011962890625,-1.0110236202586442,0.0186906719446182,-3.799690389126539,0.3904134631156921,1.0804505348205566,-0.006667333189398,jumping
1783086876825164800,2.330164794921875,-3.413586208459735,-0.1368855280838906,0.3584294072777033,-0.0681699141860008,-0.340708464384079,-0.0043992009013891,jumping
1783086876835209000,2.340208984375,-5.095635624316334,-0.558880667951703,-1.2371435021311044,-0.429577112197876,-1.3519647121429443,0.0636991634964943,jumping
1783086876845252900,2.3502529296875,-4.636519398930669,-1.270575085481256,-5.035896318146587,-0.4487189352512359,-1.9884841442108152,0.1412892192602157,jumping
1783086876855297800,2.3602978515625,-3.1997727773874995,-2.7937334776729346,-7.459746097591519,-0.0987625196576118,-2.371987819671631,0.1376944929361343,jumping
1783086876865341700,2.370341796875,-1.024218252070248,-4.077662696376443,-7.953405813091993,0.1447193175554275,-2.5107240676879883,0.0438811257481575,jumping
1783086876875385900,2.3803857421875,0.6437557305522262,-3.992775504946709,-8.521828800892829,0.2324691414833068,-2.2193427085876465,-0.0412641279399395,jumping
1783086876885430800,2.3904306640625,0.5802985729031265,-2.077880917550623,-8.238463110166787,0.3010396063327789,-1.73763906955719,-0.0471689663827419,jumping
1783086876895474700,2.400474609375,-0.134464146155864,-0.4892065354838967,-7.330082191324234,0.2559293806552887,-1.0429290533065796,-0.030052563175559,jumping
1783086876905518800,2.410518798828125,-0.7104558156453072,-0.0062643210917711,-7.436446470546722,0.114642858505249,-0.2283679693937301,-0.0784563049674034,jumping
1783086876915563800,2.420563720703125,-0.9116599405132234,-0.028621260458976,-5.942548221239448,-0.0096537973731756,0.3217707872390747,-0.1440646052360534,jumping
1783086876925607700,2.430607666015625,-0.9841749954953788,0.1338897072687745,-4.023893112266063,-0.1518519222736358,0.6854370832443237,-0.1366972029209137,jumping
1783086876935651800,2.44065185546875,-1.450178057785332,0.0125477852754294,-3.776351599115133,-0.3029098808765411,0.7706670761108398,-0.1525001227855682,jumping
1783086876945696800,2.45069677734375,-1.394414377248287,-1.3004334865197538,-3.8695881012171505,-0.3365342617034912,0.6016286611557007,-0.2388734817504882,jumping
1783086876955740700,2.46074072265625,-1.7855460306882858,-3.095805622434616,-4.803604396575689,-0.2983930110931396,0.2333901971578598,-0.3670769929885864,jumping
1783086876965784800,2.470784912109375,-1.9610459515877068,-4.128717176309228,-5.865626309600472,-0.2388903349637985,-0.3577353060245514,-0.4000861644744873,jumping
1783086876975829000,2.4808291015625,-1.3785960458695887,-3.696225922998786,-7.764216535666584,-0.0947779044508934,-0.9644001722335817,-0.262559711933136,jumping
1783086876985873700,2.490873779296875,-0.9849668765254318,-2.192265275491029,-10.347211167407036,0.0751023814082145,-1.3628621101379397,-0.0246593710035085,jumping
1783086876995917800,2.500917724609375,-1.3604365581922233,-1.511974150354415,-13.402072200512883,0.1019707471132278,-1.1787046194076538,0.0905058309435844,jumping
1783086877005961700,2.510961669921875,-2.3148678650699552,-1.5365915819995104,-14.94969911739826,0.0100953886285424,-0.5777693390846252,0.0133748054504394,jumping
1783086877016006700,2.521006591796875,-3.2386455288782714,-1.2844807151064277,-14.700370136308669,-0.1945986300706863,0.313368558883667,-0.3699336946010589,jumping
1783086877026050800,2.53105078125,-4.135188125889003,-0.2863128500938415,-14.464506201469897,-0.6854548454284668,1.5687532424926758,-0.6393869519233704,jumping
1783086877036094700,2.5410947265625,-3.959193553340435,-0.3903527780219912,-14.173753323101996,-1.116430163383484,2.785656213760376,-0.8572478890419006,jumping
1783086877046139600,2.5511396484375,-2.8126699410721656,-1.0523679494947191,-13.590176020789146,-1.080388069152832,3.687530279159546,-1.1128352880477903,jumping
1783086877056183800,2.561183837890625,-1.4004694395035504,-2.1932990024529397,-12.213022574943304,-0.7448225617408752,4.079516410827637,-1.292426586151123,jumping
1783086877066227700,2.571227783203125,0.0710334381222724,-2.253843633656204,-10.193552053046226,-0.3830756545066833,4.004697322845459,-1.3194420337677002,jumping
1783086877076272600,2.581272705078125,0.6874484495453536,-1.105791058254987,-7.81189423264265,-0.0414304211735725,3.4681060314178467,-1.1490849256515503,jumping
1783086877086316800,2.59131689453125,1.065235687439516,0.4042405797295272,-5.302383939307928,0.3474784791469574,2.5379421710968018,-0.8121387958526611,jumping
1783086877096360700,2.601360595703125,1.3354977856382726,2.0690281874008476,-3.8693998851686713,0.747660219669342,1.5577071905136108,-0.3432198166847229,jumping
1783086877106404900,2.61140478515625,0.6219124397955834,2.733184024164081,-1.916353846293688,1.044601559638977,0.5434022545814514,0.1514502614736557,jumping
1783086877116449800,2.62144970703125,-0.3011374942600727,3.3462714985996485,1.951407624018192,1.189202904701233,-0.4906001389026642,0.5526027083396912,jumping
1783086877126493700,2.63149365234375,-0.856889070405811,3.3253692880854007,5.108098800048232,1.234215259552002,-1.1309343576431274,0.8067649006843567,jumping
1783086877136537900,2.641537841796875,-0.5483681878961623,3.806205470108986,7.240202598434686,1.174146056175232,-1.3989607095718384,0.927943229675293,jumping
1783086877146582800,2.651582763671875,0.082397365641687,4.210785803186893,9.833310043388604,1.182857871055603,-1.4874366521835327,0.90790057182312,jumping
1783086877156626700,2.661626708984375,0.137140744953975,3.9023166508644818,13.439838159805536,1.0261857509613037,-1.5940523147583008,0.8187128901481628,jumping
1783086877166670800,2.6716708984375,0.0110738950642757,4.09417368619442,16.941853762346504,0.7373361587524414,-1.7224493026733398,0.7088195085525513,jumping
1783086877176715800,2.6817158203125,-0.5711896395025774,4.300131435330212,19.365421802240608,0.3103547394275665,-1.852440357208252,0.577931821346283,jumping
1783086877186759700,2.691759765625,-1.2071532914064824,3.9107404880777,20.138083752560615,-0.2339620441198349,-1.844852924346924,0.400523841381073,jumping
1783086877196803800,2.701803955078125,-1.7584037567406892,3.356206909419596,18.58066024880409,-0.6043784618377686,-1.5183078050613403,0.1776870191097259,jumping
1783086877206848800,2.711848876953125,-1.455812556540966,2.2526626071780917,15.11095000206232,-0.7052963972091675,-1.06489360332489,-0.0608380921185016,jumping
1783086877216892700,2.721892578125,-0.5035041601013391,1.4485432961903513,11.83081540171504,-0.4609144032001495,-0.5779322385787964,-0.2283301502466201,jumping
1783086877226936800,2.731936767578125,0.6303470906637608,0.7900849404163658,9.357927158334851,-0.1837496608495712,-0.0431239418685436,-0.2851873338222503,jumping
1783086877236980700,2.741980712890625,1.2330007032379506,0.6348225555773824,8.380966039741038,-0.1348979622125625,0.4730654060840606,-0.3304842412471771,jumping
1783086877247025700,2.752025634765625,1.3394722422271963,0.3281373640622943,8.130010334232448,-0.255900114774704,0.8824179768562317,-0.4014440178871155,jumping
1783086877257069800,2.76206982421875,1.8380048244610427,-0.2238333053052425,8.394686522057652,-0.3189831972122192,1.0906760692596436,-0.4415176510810852,jumping
1783086877267113700,2.77211376953125,2.113734321220219,-0.9111841396950184,8.278321657824517,-0.2662677466869354,1.1938854455947876,-0.488964706659317,jumping
1783086877277158700,2.78215869140625,2.0524027774229645,-1.875965575673431,7.9169024210810655,-0.182733952999115,1.2567650079727173,-0.573876678943634,jumping
1783086877287202800,2.792202880859375,1.8097205408714712,-2.5740052695989606,7.864951284569502,-0.140187531709671,1.2556208372116089,-0.6793274879455566,jumping
1783086877297246700,2.802246826171875,1.4790706825315951,-3.0400241139799355,7.951871443131566,-0.1120280623435974,1.1802973747253418,-0.7855870723724365,jumping
1783086877307291600,2.812291748046875,0.8903321980632841,-3.347456324470043,8.07296041327715,-0.057200152426958,1.0656721591949463,-0.8750633001327515,jumping
1783086877317335800,2.822335693359375,0.1244662097600288,-3.4633638003244993,8.136940425756574,0.0363870561122894,0.9116700887680054,-0.941291868686676,jumping
1783086877327379700,2.832379638671875,-0.6076489731760695,-3.2637592196077105,8.196396823331714,0.0788039937615394,0.6882466077804565,-0.9437761306762696,jumping
1783086877337424600,2.842424560546875,-1.105477389195934,-2.751948930388689,8.076369929459691,0.1735240966081619,0.3816286027431488,-0.871345043182373,jumping
1783086877347467800,2.8524677734375,-1.0240427493728697,-2.4764696089982987,7.704821512889861,0.3805336952209472,0.1985497176647186,-0.7354644536972046,jumping
1783086877357512000,2.862511962890625,-0.7618770830638706,-2.0632164323821662,7.891013946586847,0.5719137787818909,0.0861288979649543,-0.5781651139259338,jumping
1783086877367557000,2.87255712890625,-0.1627680842939764,-1.1679486045476049,8.958573619994521,0.6176849603652954,-0.0722684487700462,-0.3670920729637146,jumping
1783086877377601000,2.88260107421875,0.464297171687521,-0.1737766042381525,10.287007750856876,0.5578296184539795,-0.2627755403518677,-0.135922759771347,jumping
1783086877387645000,2.89264501953125,0.6312535379841924,0.1746258414786309,11.354592558705804,0.5194596648216248,-0.4894731938838959,0.031846284866333,jumping
1783086877397688800,2.902688720703125,0.8443289371054619,0.3673615593392402,12.19695406819582,0.4419730901718139,-0.7616043090820312,0.1779438406229019,jumping
1783086877407734000,2.912734130859375,1.2692065736070277,0.9944410265091806,12.913552185988426,0.222606748342514,-1.1306160688400269,0.3310687839984894,jumping
1783086877417778000,2.92277783203125,1.5386650272727012,2.002698396924883,13.068717028737067,-0.118948720395565,-1.535935878753662,0.5385103225708008,jumping
1783086877427821800,2.93282177734375,0.3756529658118263,2.8358453572154043,12.255113996219634,-0.2973562777042389,-2.005255937576294,0.7761109471321106,jumping
1783086877437867000,2.942866943359375,-1.138221867064759,3.423226727986336,8.921440697908402,-0.2295330017805099,-2.273919105529785,1.101757526397705,jumping
1783086877447911000,2.952910888671875,-3.707647480723262,3.6042461429595942,4.609463634222745,-0.0843904465436935,-2.2095887660980225,1.3939547538757324,jumping
1783086877457954800,2.962954833984375,-6.034380117240548,4.091769547662139,0.3388736429363489,-0.020406138151884,-1.7535656690597534,1.4921220541000366,jumping
1783086877468000000,2.973,-1.0139477640770376,4.666100882723927,-1.2753478528410196,-0.2791224718093872,-1.435334324836731,1.699290156364441,jumping
1783086877478044200,2.983044189453125,5.6447910170674325,5.826024951574206,-2.5439900705635545,-0.6541455984115601,-0.9939167499542236,1.9943537712097168,jumping
1783086877488087800,2.993087890625,7.511659240180253,6.079910865315795,-4.968419111201166,-0.933829665184021,-0.3323092758655548,2.2486956119537354,jumping
1783086877498133000,3.003133056640625,-2.5564748736053704,3.378904186657071,-9.786744691568613,-1.0768102407455444,1.230611801147461,1.7760863304138184,jumping
1783086877508177200,3.01317724609375,-14.7314947578907,-1.9945970696642992,-16.54764167854786,-1.3453410863876345,3.1285383701324463,0.8989679217338562,jumping
1783086877518220800,3.023220703125,-9.498110120528937,-5.813624319684505,-26.780108860921857,-1.9277852773666384,4.954121112823486,0.002014213707298,jumping
1783086877528265000,3.033264892578125,1.2267252762302756,-5.724221696656942,-32.85202638939619,-1.62049400806427,4.918893337249756,-0.4491868019104004,jumping
1783086877538310100,3.04331005859375,8.431856853544712,-3.216266231548786,-24.79890698714256,-0.4132530093193054,3.311708450317383,-0.241132378578186,jumping
1783086877548353800,3.053353759765625,7.650480850893259,-1.9652824201136827,-16.96224890012145,0.6389978528022766,1.3036731481552124,0.2727253139019012,jumping
1783086877558398000,3.06339794921875,4.67596176700294,-2.4563749154746533,-9.09078545717895,1.1598857641220093,-0.8375555276870728,0.4637221693992615,jumping
1783086877568443100,3.073443115234375,1.5398912080667913,-2.80814866425544,-1.8356389721125363,1.3766411542892456,-2.4405558109283447,0.2972345352172851,jumping
1783086877578487000,3.083487060546875,-1.8081611826002597,-1.7978750586465,2.258755663356185,0.9850158095359802,-3.437122344970703,-0.0825910940766334,jumping
1783086877588531000,3.093531005859375,-4.581961002530157,-1.7625540082879363,3.766390761592984,0.3785181641578674,-3.7185158729553223,-0.5799607038497925,jumping
1783086877598576000,3.103576171875,-5.764876947650313,-1.8863997297957535,3.2931180005609986,0.0590203180909156,-3.71892523765564,-0.9925506711006165,jumping
1783086877608620000,3.1136201171875,-4.666444873856007,-1.5054758743762968,1.701808593815565,-0.1549697816371917,-3.5566229820251465,-1.3059792518615725,jumping
1783086877618664000,3.123663818359375,-3.0153824246764183,-1.2555308072149751,-1.3008587261945008,-0.4085874259471893,-3.3321313858032227,-1.4135645627975464,jumping
1783086877628709000,3.133709228515625,-1.6107856761097907,-1.0526648866146802,-4.844970426186919,-0.4458983540534973,-2.8649635314941406,-1.3118997812271118,jumping
1783086877638753000,3.1437529296875,-0.8431940147913992,-0.8975970744997263,-8.68120980003178,-0.1870391070842743,-1.7717396020889282,-0.9891597628593444,jumping
1783086877648797000,3.153796875,-0.4382284817881882,1.0391016406863929,-11.929331890046596,0.1438729465007782,-0.1849462687969207,-0.489745020866394,jumping
1783086877658840800,3.1638408203125,0.839438169389218,3.378299791023135,-11.715721872591972,0.3735751211643219,1.2595232725143433,-0.1046109050512313,jumping
1783086877668886000,3.173885986328125,2.090533478374779,3.413500283741951,-7.079181430873274,0.3837782442569732,1.8984025716781616,0.2160864323377609,jumping
1783086877678930000,3.183929931640625,1.886967885072529,1.98861404973194,-2.1117285343557595,0.0151096489280462,1.6753371953964231,0.505558967590332,jumping
1783086877688973800,3.193973876953125,2.260062946562469,0.988081209153682,0.0044324294894933,-0.4551134407520294,0.764431357383728,0.6916235089302063,jumping
1783086877699019000,3.20401904296875,1.165692861510068,0.2204270039930939,-1.1634592572391032,-0.5401231646537781,-0.1127175241708755,0.9120395183563232,jumping
1783086877709063200,3.214063232421875,-3.179719584918022,-1.3320380005732178,-4.40573963548839,-0.2840837240219116,-0.74969482421875,0.8742914795875549,jumping
1783086877719106800,3.22410693359375,-6.015187925514579,-3.0431326013892885,-7.375656194019317,-0.1040420532226562,-1.1650667190551758,0.6451081037521362,jumping
1783086877729152000,3.234152099609375,-5.839612162899971,-3.370772902649641,-9.203180833259225,-0.1477067172527313,-1.3756940364837646,0.3470984995365143,jumping
1783086877739196200,3.244196044921875,-4.772655131560564,-1.780383971749991,-11.468787093162536,-0.2825801074504852,-1.1267327070236206,0.0569063499569892,jumping
1783086877749239800,3.25423974609375,-4.322213795539737,1.220555793815106,-14.617113176429273,-0.4880180954933166,-0.1556202620267868,-0.1926839351654052,jumping
1783086877759285000,3.264284912109375,-3.9879222196966406,2.9295465542197228,-17.245551462483405,-0.738669216632843,1.1959714889526367,-0.5243303179740906,jumping
1783086877769329200,3.2743291015625,-3.942076122061908,2.5106723228514194,-17.736816391801835,-0.9885433912277222,2.7678024768829346,-0.9092286825180054,jumping
1783086877779373000,3.284373046875,-5.256468575829267,1.7866930087663233,-17.58505112836361,-1.263410210609436,4.386524677276611,-1.2949172258377075,jumping
1783086877789417000,3.2944169921875,-5.3009471845030784,0.8839020188853144,-16.327908209776876,-1.3919634819030762,5.5007219314575195,-1.4555314779281616,jumping
1783086877799462100,3.304462158203125,-3.830651636840402,0.3999699166730046,-13.904220927417278,-1.3173787593841553,5.895400524139404,-1.4334464073181152,jumping
1783086877809506000,3.314506103515625,-2.5499901877611872,-0.419314960873127,-10.931028123694658,-1.0220609903335571,5.570652008056641,-1.328176736831665,jumping
1783086877819550000,3.324550048828125,-0.9718608728453516,-1.844233781978488,-7.937047383487224,-0.4979309141635895,5.05400276184082,-1.1791483163833618,jumping
1783086877829595100,3.33459521484375,0.4656131861895322,-0.6282046718075871,-5.71340862621963,-0.042214062064886,4.350493907928467,-0.8554968237876892,jumping
1783086877839639000,3.34463916015625,2.678394449356198,1.4989264527328312,-1.1032494109481572,0.3470538258552551,3.2754998207092285,-0.4821536242961883,jumping
1783086877849683000,3.354682861328125,3.6631022365540264,1.597758875145763,1.5662299105465411,0.648594081401825,2.4865548610687256,-0.1686000674962997,jumping
1783086877859728100,3.36472802734375,4.091957763710618,1.631623004694283,3.905177300992608,0.8177333474159241,1.759436011314392,0.1084046363830566,jumping
1783086877869772000,3.37477197265625,2.559345752866566,1.970651545931399,6.65180532861948,0.9010497331619264,1.1698452234268188,0.3575052618980407,jumping
1783086877879816000,3.38481591796875,0.5946719661705195,2.7026167442038656,9.857503404402731,0.909648060798645,0.5809393525123596,0.6630774140357971,jumping
1783086877889860900,3.39486083984375,-1.7482690239563583,3.4911674607902765,13.254473409104346,0.7420263290405273,0.0126007245853543,0.96360582113266,jumping
1783086877899905000,3.404905029296875,-4.91154980750978,3.661004972013831,15.942427713966367,0.7979005575180054,-0.6076750159263611,1.2107291221618652,jumping
1783086877909949200,3.41494921875,-7.968734899649023,3.180476540765166,18.11582272316217,0.5959513783454895,-1.0573601722717283,1.2564159631729126,jumping
1783086877919992800,3.424992919921875,-9.704069330969451,1.9737774228669704,18.912754022341964,0.2313295304775238,-1.4262841939926147,1.0672696828842163,jumping
1783086877930038000,3.4350380859375,-9.231398627483845,1.2288446064718066,18.92387513581514,0.0210661552846431,-1.7305470705032349,0.7642574906349182,jumping
1783086877940082200,3.445082275390625,-6.899134660324454,0.3786110484324395,16.535767700880765,0.1298935711383819,-1.9157075881958008,0.4877475798130035,jumping
1783086877950125800,3.455125732421875,-3.904005626864731,-0.2852542809516191,13.479038535815477,0.4003397524356842,-1.9576053619384768,0.3237946331501007,jumping
1783086877960171000,3.4651708984375,-1.2221098913893105,-0.705533702942729,10.49821421430111,0.5648900866508484,-1.7129820585250854,0.2324018776416778,jumping
1783086877970215200,3.475215087890625,0.8837224975999444,-0.982561715079844,8.143371920108795,0.5038833022117615,-1.2487361431121826,0.1797859370708465,jumping
1783086877980258800,3.4852587890625,2.1125059484690425,-1.1213391943901776,6.708235656371713,0.3036628663539886,-0.7270013093948364,0.1819987595081329,jumping
1783086877990304000,3.495303955078125,2.232190750905126,-1.3794718057908115,6.191077576383948,0.1538600921630859,-0.3434725999832153,0.2236461043357849,jumping
1783086878000348200,3.50534814453125,1.911498076825589,-1.941957950888574,6.057243106433749,0.1170381605625152,-0.058478944003582,0.2263185828924179,jumping
1783086878010392000,3.51539208984375,1.0853862758688628,-2.7363918802946805,6.271870776498317,0.1462093144655227,0.0613213144242763,0.244306594133377,jumping
1783086878020437000,3.52543701171875,0.1882674864053726,-3.003217355108261,7.957540720939636,0.1672118008136749,-0.0674190893769264,0.2207663804292678,jumping
1783086878030481200,3.535481201171875,-0.3963742302685976,-3.330685806933045,9.40752267163098,0.1414356231689453,-0.3164758086204529,0.1211745515465736,jumping
1783086878040525000,3.545525146484375,-0.8829764284729957,-3.566834988453984,10.158432808870076,0.1088228151202201,-0.5883474946022034,0.0062426403164863,jumping
1783086878050569000,3.55556884765625,-1.0535822937205432,-3.316284356614947,10.644495493370291,0.0835977420210838,-0.9156926274299622,-0.101066380739212,jumping
1783086878060614000,3.56561376953125,-0.8475093937724828,-2.834122771206498,10.495118586373328,0.0763744488358497,-1.1999146938323977,-0.1807159334421157,jumping
1783086878070658000,3.575657958984375,-0.9589898469649256,-2.286157757283747,9.683162736541032,0.1002912819385528,-1.2917169332504272,-0.2299782484769821,jumping
1783086878080702000,3.585701904296875,-0.9874464183814824,-1.6674064118675886,8.880647499749063,0.1051318421959877,-1.118775725364685,-0.2379131317138672,jumping
1783086878090747000,3.595746826171875,-0.6663784812487662,-0.8270563883304596,8.578619194129109,0.0288014970719814,-0.8108239769935608,-0.1644971370697021,jumping
1783086878100791000,3.605791015625,-0.2519854138825088,-0.0418365697324275,8.849431692752242,-0.0426026433706283,-0.551984429359436,-0.0353838875889778,jumping
1783086878110835200,3.615835205078125,0.2857791450759396,0.546886863297224,9.251763370120525,-0.0562838837504386,-0.393932431936264,0.1187249422073364,jumping
1783086878120879900,3.6258798828125,0.5797588765358552,0.8396163024351,9.503487137392163,-0.0967974811792373,-0.3014267385005951,0.2319242060184478,jumping
1783086878130924000,3.635924072265625,0.1887915468120947,0.8373419277623295,9.893860665941238,-0.2121725678443908,-0.3094193637371063,0.2882255613803863,jumping
1783086878140968200,3.64596826171875,-0.384882785645686,0.584948736796528,10.87276181268692,-0.3330316245555877,-0.5511268377304077,0.2515354454517364,jumping
1783086878151012900,3.656012939453125,-0.540392094450444,0.2085457198023796,11.56139640327692,-0.3289559781551361,-1.0297051668167114,0.1626265347003936,jumping
1783086878161057000,3.66605712890625,-0.975905545126274,-0.1421649297915399,11.22448383128047,-0.2516505420207977,-1.5461264848709106,0.013113735243678,jumping
1783086878171101200,3.67610107421875,-2.716329043214023,-0.1985590171866118,9.52307329687178,-0.1431784331798553,-1.8364226818084717,-0.1181825473904609,jumping
1783086878181144800,3.686144775390625,-3.626371757788956,0.6013178339257836,6.298779241690039,-0.0390632301568985,-2.022303581237793,-0.1802485883235931,jumping
1783086878191190000,3.69618994140625,-3.238347714975476,1.701075603365898,3.5758138292014596,-0.1018154844641685,-2.181772947311402,-0.0449284948408603,jumping
1783086878201234000,3.70623388671875,-1.0033535240221767,3.035841859859228,-0.4952227270334958,-0.2277963012456894,-2.116940975189209,0.1155439987778663,jumping
1783086878211278000,3.716278076171875,2.0651634747967123,4.112950867378712,-4.28481491599381,-0.3435420393943786,-1.7222260236740112,0.358227789402008,jumping
1783086878221323000,3.726322998046875,2.2188526920348406,4.5622103001385925,-6.4056409490406505,-0.2195529788732528,-1.1376581192016602,0.7151896953582764,jumping
1783086878231367000,3.736366943359375,-5.353429066890478,6.480329402539134,-10.55378821748495,-0.0609398894011974,1.4224605560302734,1.0463018417358398,jumping
1783086878241411000,3.7464111328125,-8.650221956571936,5.512346540170908,-23.253386687147614,-0.5768642425537109,4.693192958831787,1.1125149726867676,jumping
1783086878251456000,3.7564560546875,5.110280820262432,1.652461356192082,-25.36180624308586,-1.1229536533355713,6.469559192657471,0.6029723882675171,jumping
1783086878261500000,3.7665,7.507939927396178,-2.9105495928049088,-24.41063247669935,-0.9282075762748718,6.913544654846191,0.0795658677816391,jumping
1783086878271544000,3.7765439453125,7.668855881017446,-4.795562544417381,-21.22365780608654,-0.3104524910449981,6.271037578582764,-0.2626098692417145,jumping
1783086878281588000,3.786587890625,6.974591760107875,-5.0610313439249985,-14.471132341611384,0.3416901528835296,4.888805866241455,-0.3587294816970825,jumping
1783086878291633000,3.7966328125,4.852675009214877,-2.8718919453695415,-8.44685743879974,0.5144545435905457,3.2540907859802246,-0.4100719690322876,jumping
1783086878301677000,3.806677001953125,3.014242899252474,-0.5978530804246663,-5.912412610694766,0.3101709187030792,1.6735634803771973,-0.4215579032897949,jumping
1783086878311721000,3.816720947265625,1.3578069403409958,1.0628878822043537,-2.749268897524476,0.2286307513713836,-0.0195645857602357,-0.3216944336891174,jumping
1783086878321766000,3.826765869140625,-2.5138065292239187,0.5083360372371971,-0.2226332818657159,0.1579347401857376,-1.6562131643295288,-0.2809930741786957,jumping
1783086878331810000,3.83681005859375,-5.697595555537939,-0.8007765764310956,1.9388357272148131,0.0876519829034805,-3.5089404582977295,-0.3526878654956817,jumping
1783086878341854200,3.846854248046875,-6.091443482199311,-1.79200002913326,4.421380856734514,0.1384938508272171,-5.444581031799316,-0.4971536993980407,jumping
1783086878351899100,3.856899169921875,-4.967054252588748,-2.701152809131145,2.585261992150545,0.3255080580711365,-6.435614585876465,-0.5628803968429565,jumping
1783086878361943300,3.866943359375,-2.8932316705182193,-2.0003158857025203,-1.410505680349469,0.5389167070388794,-6.381539821624756,-0.4022476077079773,jumping
1783086878371987500,3.876987548828125,-0.788473121305555,-0.1846286915116012,-4.586945512944459,0.7296603322029114,-5.772134304046631,-0.0985853970050811,jumping
1783086878382032100,3.8870322265625,1.1801407813183962,0.44658495285362,-7.224365562355518,0.6097959876060486,-4.541878700256348,0.0953925997018814,jumping
1783086878392076300,3.897076171875,2.970519785121083,-0.1357744981020689,-12.051005966603755,0.0711127445101738,-2.7275514602661133,0.0282643511891365,jumping
1783086878402120400,3.907120361328125,3.059725424271822,-2.3136174266174434,-15.284333223068714,-0.3931736946105957,-0.9125445485115052,-0.2677151262760162,jumping
1783086878412164000,3.9171640625,2.0675877793341875,-3.853160698029398,-13.493872532331944,-0.3429190814495086,0.2041279822587967,-0.6133979558944702,jumping
1783086878422209300,3.927209228515625,0.7349095811612903,-3.1361709505707025,-8.724438116383553,-0.0491343289613723,0.3204807043075561,-0.6654499769210815,jumping
1783086878432253200,3.937253173828125,-0.5276584312140942,-2.2765388650670646,-6.1578667961776254,0.2051119953393936,-0.1302370131015777,-0.5621452927589417,jumping
1783086878442297300,3.94729736328125,0.0535576949253678,-1.8815315392374992,-5.436975365105271,0.4202663600444793,-0.4773220121860504,-0.494131863117218,jumping
1783086878452342300,3.95734228515625,0.6647362669996917,-0.2945201219469309,-6.147326112940907,0.2971509993076324,-0.268272191286087,-0.4264037907123565,jumping
1783086878462386200,3.96738623046875,0.7862699121728539,1.9528196827732025,-7.878732557162642,-0.2692479491233825,0.453832745552063,-0.3263243436813354,jumping
1783086878472430300,3.977430419921875,1.2067705756992102,5.053441911709308,-10.22921840971112,-0.8842308521270752,1.2305843830108645,-0.0516071133315563,jumping
1783086878482532400,3.987532470703125,1.369876002188772,6.442015746235847,-11.699916400694846,-1.1411653757095337,1.4496361017227173,0.2724002599716186,jumping
1783086878492518100,3.99751806640625,0.2434208530243486,4.039055317823588,-12.876947087168691,-1.0532355308532717,1.2263784408569336,0.4128101170063019,jumping
1783086878502563300,4.007563232421875,-1.7121718746587633,-0.913227335960418,-15.091401251983642,-0.8862234354019165,0.9280382990837096,0.1520666778087616,jumping
1783086878512607200,4.017607177734375,-2.8464272492453455,-4.033911232933402,-16.4639007345438,-0.7763003706932068,0.7381027340888977,-0.1987192928791046,jumping
1783086878522651100,4.027651123046875,-1.6312129625886678,-3.8159745844513178,-16.62553857269883,-0.7232054471969604,0.5788358449935913,-0.4071446657180786,jumping
1783086878532695300,4.0376953125,0.5603829622734338,-1.6070331917084753,-15.24526845613718,-0.3996591567993164,0.4219362437725067,-0.5564842224121094,jumping
1783086878542740200,4.047740234375,0.4261463412631303,-0.0724747229717671,-14.162729240262507,0.0738479346036911,0.6293829083442688,-0.6259754300117493,jumping
1783086878552784100,4.0577841796875,-0.3185518626585603,1.8118617906838657,-10.509238297140598,0.4422452449798584,0.9404182434082032,-0.5887056589126587,jumping
1783086878562828300,4.067828369140625,0.0942233211822807,3.874089796550572,-5.122941564393043,0.6546302437782288,1.3143572807312012,-0.4518641829490661,jumping
1783086878572873200,4.077873291015625,0.8395210984323174,5.094518018463254,0.9642442603617906,0.6836221218109131,1.454695701599121,-0.2429089695215225,jumping
1783086878582917000,4.087917236328125,0.5261318061687051,4.878782679417729,6.2959033939927815,0.4723095595836639,1.3994827270507812,-0.0867412090301513,jumping
1783086878592961300,4.097961181640625,-0.9296718364134432,3.685849782674014,10.827101300752162,0.184450551867485,1.1293054819107056,-0.0363689102232456,jumping
1783086878603006200,4.108006103515625,-2.0075432066075503,3.129427613790333,14.6007208445549,0.0479952432215213,0.6361373066902161,0.047536376863718,jumping
1783086878613050000,4.118050048828125,-2.788988328972459,3.7159699033886193,16.605595854866504,0.0553889088332653,0.0541826225817203,0.2166718095541,jumping
1783086878623094300,4.12809423828125,-3.632460137791931,4.053061631344258,18.15188070949316,0.0092475162819027,-0.6488109230995178,0.3849313855171203,jumping
1783086878633139200,4.13813916015625,-4.0185979284673925,3.017373306232691,19.930950237643717,-0.1483329832553863,-1.397712469100952,0.3657071590423584,jumping
1783086878643183000,4.14818310546875,-3.82549995316565,1.4194310373440384,19.97419550513029,-0.3950570225715637,-1.9763939380645752,0.1889102756977081,jumping
1783086878653227300,4.158227294921875,-2.946903931733966,0.6004129940405488,18.17577362625599,-0.5995778441429138,-2.357170820236206,0.0027316797059029,jumping
1783086878663271200,4.168271240234375,-1.6183274697914718,0.2335940902106463,15.400171433079242,-0.619359016418457,-2.509775400161743,-0.0703121721744537,jumping
1783086878673316400,4.17831640625,-0.6330247854404151,0.0216783094532787,12.150953364521264,-0.3968564569950104,-2.43545913696289,-0.0764182657003402,jumping
1783086878683360300,4.1883603515625,0.6448030476480722,-0.5690275295652448,9.331249579289556,-0.0825789496302604,-2.136216163635254,-0.0686706006526947,jumping
1783086878693404200,4.198404052734375,1.8411802396267651,-1.3763878683008253,7.720870145893096,0.0369709990918636,-1.650734305381775,-0.1335192769765854,jumping
1783086878703449300,4.208449462890625,2.2528464393123984,-1.8632726828388868,6.829902718666196,-0.0588913485407829,-1.029426097869873,-0.2695591151714325,jumping
1783086878713493200,4.2184931640625,2.2864272218748924,-2.203198903568089,6.049721478757262,-0.1983837038278579,-0.4049047827720642,-0.3914956450462341,jumping
1783086878723537200,4.228537109375,2.409568302244693,-2.4214022401623425,5.9261605655401945,-0.266314297914505,0.1032550930976867,-0.4938201606273651,jumping
1783086878733582300,4.238582275390625,2.479528412047028,-2.849787373328209,6.145180333083868,-0.2675725221633911,0.5069437623023987,-0.5964255332946777,jumping
1783086878743626200,4.248626220703125,2.507161099860072,-3.5249253534853455,6.3894327415615315,-0.2971615493297577,0.8155961632728577,-0.7594946026802063,jumping
1783086878753670100,4.258670166015625,2.478620649552345,-4.505834040661156,6.726452865585684,-0.4096978902816772,1.020553708076477,-0.9723117351531982,jumping
1783086878763714300,4.26871435546875,2.17967043620348,-5.000225869828462,7.162320317330956,-0.5378545522689819,1.010982632637024,-1.1791962385177612,jumping
1783086878773759200,4.27875927734375,1.6993332897432147,-5.115278482419252,7.562483418488502,-0.5650075674057007,0.8028703331947327,-1.29899263381958,jumping
1783086878783803100,4.28880322265625,1.2666430067293346,-5.232862659314274,7.883290074336529,-0.4944436848163605,0.5268017649650574,-1.328376054763794,jumping
1783086878793847300,4.298847412109375,1.0575251861274242,-4.986514155340195,8.357664074608683,-0.3455777764320373,0.2260113358497619,-1.3048170804977417,jumping
1783086878803892200,4.308892333984375,1.343257752115279,-4.298258334934711,8.322899635219574,-0.2131821811199188,0.0867391899228096,-1.1956212520599363,jumping
1783086878813936000,4.31893603515625,1.6344415692463516,-3.182204095210135,8.407737726810574,-0.2035230547189712,0.1411692053079605,-0.9908919930458068,jumping
1783086878823980300,4.328980224609375,1.541169995830953,-2.266367015142739,8.834788250371814,-0.3667300641536712,0.2474431693553924,-0.7012308835983276,jumping
1783086878834025200,4.339025146484375,1.8249834303244947,-1.1259848282389342,9.82503905864954,-0.3608330190181732,0.013047344982624,-0.4066332578659057,jumping
1783086878844069000,4.349069091796875,2.2763003801360724,-0.5014009772770106,9.47200946458876,-0.0491803251206874,-0.2330945134162902,-0.111147291958332,jumping
1783086878854113300,4.35911328125,2.8945611655563113,-0.9259925633788108,8.77716491344273,0.355115532875061,-0.4868709146976471,0.1077536568045616,jumping
1783086878864158200,4.369158203125,2.9041584304630756,-1.0534751800842583,8.014090875679255,0.6649188995361328,-0.5331603288650513,0.1705919951200485,jumping
1783086878874202400,4.379202392578125,2.244880721130222,-0.7042397176094353,8.37313110833168,0.743326723575592,-0.5053627490997314,0.1494817584753036,jumping
1783086878884246300,4.389246337890625,1.908935825122148,-0.1663188355781137,9.911980844521525,0.5442477464675903,-0.6135457158088684,-0.0082314359024167,jumping
1783086878894291200,4.399291259765625,1.176947684365511,0.4352740158967673,11.166360143613815,0.1406079083681106,-0.7938492894172668,-0.1778214573860168,jumping
1783086878904335400,4.40933544921875,-2.0838316426485775,1.7726520623236894,9.913990430778265,-0.2965188324451446,-0.782795786857605,-0.0645537674427032,jumping
1783086878914379000,4.41937890625,-4.718496548132598,2.845922222332656,6.858591637533903,-0.3908739387989044,-0.9778223037719728,0.1591103672981262,jumping
1783086878924423200,4.429423095703125,-3.7755619100421662,3.4593969425201414,5.122996509450674,0.0191604625433683,-1.6234867572784424,0.3832300007343292,jumping
1783086878934468400,4.43946826171875,2.9532173526644705,4.270467241689563,4.209166093030571,0.418413907289505,-2.4861629009246826,0.6644686460494995,jumping
1783086878944512300,4.44951220703125,4.767414892819524,5.126824543306231,0.5390361497968434,0.3540607392787933,-2.501617670059204,1.2276896238327026,jumping
1783086878954556200,4.45955615234375,-6.352558762672543,5.482579762938618,-5.218830042308569,-0.0510649643838405,-0.8657719492912292,2.160043954849243,jumping
1783086878964601300,4.469601318359375,-16.682618304270505,5.717490342575311,-14.205592230433226,0.1019165962934494,1.7406808137893677,1.6697245836257937,jumping
1783086878974645200,4.479645263671875,5.434100686451792,4.556117243960499,-21.50734030767679,-1.352593183517456,3.9590694904327393,1.8552323579788208,jumping
1783086878984689200,4.489689208984375,4.946417707273364,-2.8657594339638948,-31.442187648522857,-2.41405987739563,5.534266471862793,1.055222511291504,jumping
1783086878994734300,4.499734375,-1.50505063470155,-6.353235054498911,-22.075867340373993,-1.020090103149414,4.9051103591918945,0.0050191148184239,jumping
1783086879004778200,4.5097783203125,-2.4542653759747743,-6.900926219916343,-13.28867027773857,1.0183076858520508,3.2177841663360596,-0.3365406095981598,jumping
1783086879014822100,4.519822265625,-2.230489353814721,-4.328009914597868,-5.843071947965026,2.0141725540161133,1.2610679864883425,-0.6473283171653748,jumping
1783086879024866300,4.5298662109375,-2.074908623741567,-1.0341985249452292,-1.479291047284007,1.9367890357971191,-0.2957722842693329,-0.880648136138916,jumping
1783086879034911200,4.5399111328125,-2.4332906847462055,1.9700467119060456,-1.075168394845724,1.2483739852905271,-1.14824116230011,-0.7628351449966431,jumping
1783086879044955100,4.549955078125,-2.4402324667081237,3.1705174568086862,-0.9359744436889886,0.4571232795715332,-1.9274524450302124,-0.5014304518699646,jumping
1783086879054999300,4.559999267578125,-1.634291931642592,1.5862629370108243,-1.725693911793828,0.0794042199850082,-2.894154787063598,-0.2651518285274505,jumping
1783086879065044200,4.570044189453125,-0.9952021470747888,-1.1508663176476954,-2.8655566048681735,-0.0117352772504091,-3.894256591796875,-0.1840908080339431,jumping
1783086879075088400,4.58008837890625,-1.4512848499834536,-4.183259498357772,-5.553525522777438,-0.18756665289402,-4.24801778793335,-0.341949313879013,jumping
1783086879085132000,4.590132080078125,-1.9930482327871024,-4.821352526973188,-8.465576167795062,-0.2480563670396804,-3.8499867916107178,-0.5361707210540771,jumping
1783086879095177200,4.60017724609375,-0.8892539013072848,-2.6049948666244744,-12.466644284790751,-0.2312548607587814,-2.6152515411376953,-0.6064926981925964,jumping
1783086879105221400,4.610221435546875,0.2505339729651809,-0.6711098936848342,-15.7756741402328,-0.3552375435829162,-0.8551051616668701,-0.4818620681762695,jumping
1783086879115265000,4.62026513671875,0.1044832877814769,1.2243683378405867,-15.3929023188591,-0.3706368505954742,0.8342934250831604,-0.2625633776187897,jumping
1783086879125309200,4.63030908203125,-0.7804290771901607,1.1926206159241497,-11.577259158319237,-0.0079332236200571,1.8973807096481323,-0.2382796108722686,jumping
1783086879135354400,4.640354248046875,-1.5662110597155987,-0.099927962564677,-7.585403690826892,0.4100505411624908,2.2835569381713867,-0.3643120527267456,jumping
1783086879145398000,4.65039794921875,-2.549728029693663,0.1872485186211764,-4.365694040825963,0.6562179923057556,2.2053403854370117,-0.4114989936351776,jumping
1783086879155442200,4.660442138671875,-3.227909907591343,1.2160922385349868,-2.2123890489786864,0.5675219297409058,1.7331819534301758,-0.3049594163894653,jumping
1783086879165487400,4.6704873046875,-2.651988088467717,1.9173754444263875,-2.2624328905642033,0.1020307019352912,0.8431795835494995,-0.0228332076221704,jumping
1783086879175531300,4.68053125,-1.4553582369022071,1.7666347017303108,-5.29721442771554,-0.4086678922176361,-0.1385802924633026,0.2770532071590423,jumping
1783086879185575200,4.6905751953125,-0.6696050420798361,0.6723522949613631,-9.874067585712671,-0.7076132893562317,-0.8400875329971313,0.4425178170204162,jumping
1783086879195620400,4.700620361328125,-1.1518756408207118,-0.6394087873890996,-14.565689278662203,-0.6908034682273865,-0.948945939540863,0.3669257462024688,jumping
1783086879205664300,4.710664306640625,-1.3979841985590755,-1.2398144749060271,-17.43461740579009,-0.4733036458492279,-0.5245627164840698,0.1012935563921928,jumping
1783086879215708200,4.720708251953125,-0.6477924387224018,-1.3139774432256817,-18.266079920125005,-0.3042595684528351,0.2454631775617599,-0.2429413497447967,jumping
1783086879225752000,4.730751953125,-1.1816206446126103,-0.8948403231374918,-17.913956919515133,-0.2533095777034759,1.3162983655929563,-0.5419597625732422,jumping
1783086879235797200,4.74079736328125,-1.6290552000328895,-0.0388018782116472,-15.352285061788558,-0.2725556492805481,2.2085564136505127,-0.8338912129402161,jumping
1783086879245841200,4.750841064453125,-1.056362425958365,1.7921219019472598,-11.498676035469767,-0.2331078499555587,2.5897295475006104,-0.8850572109222412,jumping
1783086879255885000,4.760885009765625,-0.4967813546523451,3.453153956477344,-7.728088991230726,-0.2062210142612457,2.505162239074707,-0.6879224181175232,jumping
1783086879265930200,4.77093017578125,0.2452812400687485,4.0029029312074185,-4.475236950084567,-0.2237816303968429,1.9759173393249512,-0.3794242143630981,jumping
1783086879275974400,4.780974365234375,0.6458984416693448,3.4635800734236835,-2.5780712038636207,-0.1316559165716171,1.3005433082580566,-0.1296191364526748,jumping
1783086879286018000,4.79101806640625,0.8722278746392578,2.8696280920907853,-1.606109500992298,0.1468888968229293,0.8150615692138672,0.0084553798660635,jumping
1783086879296063200,4.801063232421875,1.1645451527796684,2.939698530399799,0.4173842850714921,0.5243762731552124,0.5188450813293457,0.0927998200058937,jumping
1783086879306107400,4.811107421875,0.8947341593492776,3.04423033349812,2.9847464633941647,0.8793677687644958,0.4473819434642792,0.1072060018777847,jumping
1783086879316151000,4.821151123046875,0.6412381947733461,2.891702853515744,6.302801921334862,1.0308867692947388,0.4637997448444366,0.0365964211523532,jumping
1783086879326195200,4.8311953125,0.4448728151734918,2.1002206135220822,9.907830739104748,0.9555625319480896,0.3492864966392517,-0.1338781118392944,jumping
1783086879336240400,4.841240478515625,-0.1168932720214128,1.3738482668206096,13.285309276872873,0.7203693985939026,-0.0101727368310093,-0.3347228467464447,jumping
1783086879346284000,4.851283935546875,-1.1993687019448729,0.7734599688299,16.110996812689304,0.465223103761673,-0.6160066723823547,-0.4838066101074219,jumping
1783086879356327700,4.86132763671875,-2.5309108087599275,-0.0434879902012646,17.976662089753148,0.2977294325828552,-1.3299405574798584,-0.545661985874176,jumping
1783086879366372900,4.871372802734375,-3.4928856628850102,-0.7547546838380396,19.087237313544748,0.1503122895956039,-2.065580368041992,-0.5677369236946106,jumping
1783086879376416800,4.881416748046875,-3.667139529246091,-0.9339885305687784,18.76983140605092,-0.0102823330089449,-2.6657328605651855,-0.5854071378707886,jumping
1783086879386460700,4.891460693359375,-2.641412918439507,-0.0267762171141803,17.073746450579165,-0.0956009626388549,-3.0054290294647217,-0.4820024669170379,jumping
1783086879396505900,4.901505859375,-0.9642335928373038,0.8099205446124076,14.45452256759405,-0.0764019340276718,-2.9653160572052,-0.2832334041595459,jumping
1783086879406549800,4.9115498046875,0.2768944488853216,0.8229973221980035,11.31206508409977,-0.0017644489416852,-2.4505691528320312,-0.0542825236916542,jumping
1783086879416593700,4.92159375,1.139970683493465,0.4179180996872484,8.56395646252632,0.0890185311436653,-1.5816504955291748,0.1131747141480445,jumping
1783086879426638800,4.931638916015625,1.9968419259816408,0.0896307326950132,6.903623788437247,0.1547722518444061,-0.6134235858917236,0.1902159601449966,jumping
1783086879436682800,4.941682861328125,2.7361472578838466,-0.3520885138183832,5.989565993002056,0.1703344136476516,0.3194188475608825,0.1920500844717025,jumping
1783086879446727000,4.951726806640625,2.5526217053085563,-0.7771743131779134,5.327863248479366,0.1520566046237945,1.246862292289734,0.1500174105167389,jumping
1783086879456770600,4.9617705078125,1.7470856593906878,-1.3761873772926627,5.8075768562138075,0.0280427448451519,1.9150142669677737,0.0229348018765449,jumping
1783086879466815700,4.971815673828125,1.4169446273557842,-2.0999244070544836,6.925273310187459,-0.1386112123727798,2.145778179168701,-0.1350220739841461,jumping
1783086879476860000,4.98185986328125,1.3362090026475488,-2.676324657344818,7.937859868913889,-0.2065346837043762,2.008603811264038,-0.2242873460054397,jumping
1783086879486903600,4.991903564453125,1.6863402449183165,-3.0609555505886674,8.862516215252876,-0.1814152151346206,1.642633080482483,-0.2395097017288208,jumping
1783086879496948700,5.00194873046875,2.3152706006519495,-3.2637048590719697,9.445425409045814,-0.1337838917970657,1.1803572177886963,-0.2082501500844955,jumping
1783086879506993000,5.011992919921875,2.8059207590728996,-3.2898104834482074,9.541003505837915,-0.0842392444610595,0.71636563539505,-0.160357728600502,jumping
1783086879517036800,5.022036865234375,2.976801057347655,-3.0463486408263445,9.35047041258812,0.0065153846517205,0.3123388290405273,-0.1012361198663711,jumping
1783086879527080700,5.032080810546875,2.851720971739292,-2.4015942546255884,9.350192180168628,0.0938604101538658,0.0054579991847276,-0.0117603056132793,jumping
1783086879537126000,5.0421259765625,2.5435028715685006,-1.7177467521816492,9.783834941601752,0.1337770372629165,-0.242741122841835,0.0917126759886741,jumping
1783086879547169800,5.052169677734375,2.0557374748036263,-1.0120746636815368,10.111939937764406,0.089194655418396,-0.3865388035774231,0.2099895179271698,jumping
1783086879557213700,5.062213623046875,1.637598279711604,-0.2324658168330788,10.375151313734056,-0.0150628127157688,-0.4212750494480133,0.3015337586402893,jumping
1783086879567259000,5.0722587890625,1.244606823749095,0.2072705853000283,10.66634024543166,-0.0806138589978218,-0.4189543724060058,0.4004382491111755,jumping
1783086879577302800,5.082302734375,1.2013868368342515,-0.0224045779012143,11.124012701749802,-0.0827831700444221,-0.4197027087211609,0.4650932550430298,jumping
1783086879587346700,5.0923466796875,1.3648859388165175,-0.4116149078898131,11.335415564548969,-0.1125844717025756,-0.4694681465625763,0.433059424161911,jumping
1783086879597392000,5.102391845703125,1.5502511279091238,-0.3252725492157042,11.206314552861452,-0.1199767515063285,-0.6281753778457642,0.3881295621395111,jumping
1783086879607435800,5.112435791015625,1.3820187137946485,-0.0676730217784643,10.86608189653158,-0.0762289986014366,-0.8753817081451416,0.384923368692398,jumping
1783086879617479700,5.122479736328125,-0.4217303514517843,0.3361464099295437,9.464661439913511,-0.0506234019994735,-1.021806716918945,0.4230959117412567,jumping
1783086879627524600,5.132524658203125,-2.8792621818766,1.1918858719088137,6.988010629129409,0.0658536702394485,-0.939459502696991,0.5229184031486511,jumping
1783086879637568800,5.14256884765625,-2.763866162675619,1.669161584971845,5.187949166354537,0.2165574580430984,-0.9217100739479064,0.6980074048042297,jumping
1783086879647613000,5.152613037109375,-2.345119941601157,2.691914440664649,3.234332049593329,0.3049176633358001,-0.8984585404396057,0.9833978414535522,jumping
1783086879657656600,5.162656494140625,1.229669220727682,3.73215823712349,1.587190865510702,0.3960732817649841,-1.1368194818496704,1.1270161867141724,jumping
1783086879667701800,5.17270166015625,5.2491328261137005,4.857342416504025,-1.225941724637151,0.4237837493419647,-1.2609944343566897,1.4239623546600342,jumping
1783086879677746000,5.182745849609375,0.8489911567628383,5.450771835267544,-7.43594670433104,0.206068217754364,-0.4440954029560089,1.8569809198379517,jumping
1783086879687789600,5.19278955078125,-12.857664879071711,5.094725523734092,-16.304097126078606,0.1099584624171257,1.911983013153076,2.2070465087890625,jumping
1783086879697834800,5.202834716796875,-4.389651254996657,2.5328064132481813,-20.757730731642244,-0.2156604379415512,3.982412338256836,1.3550820350646973,jumping
1783086879707879000,5.21287890625,4.2276726405799385,-0.9366530736029148,-23.861995554864404,-1.2431045770645142,5.5762434005737305,0.9304935336112976,jumping
1783086879717922600,5.222922607421875,3.1469854823127386,-2.206290439842641,-19.44123546037674,-1.0467637777328491,5.5882391929626465,0.5489081144332886,jumping
1783086879727967700,5.2329677734375,0.2852246712646447,-3.688336046531796,-14.00476103053093,0.1769020706415176,4.283771991729736,0.1974027901887893,jumping
1783086879738012000,5.243011962890625,-0.3100297161700204,-2.3840153433151543,-10.255265874159337,1.3381367921829224,2.442000389099121,0.070484422147274,jumping
1783086879748055800,5.253055908203125,-0.5880701567526906,0.6847022195771336,-6.946099825116992,1.766138792037964,0.8325545191764832,0.0298118293285369,jumping
1783086879758099700,5.263099609375,-2.387486234296113,1.4195892966456711,-5.908571717357635,1.4334558248519895,0.0443101748824119,-0.1144517287611961,jumping
1783086879768145000,5.273144775390625,-2.3888066692449152,0.3163388627842068,-3.679174250432849,0.7933564782142639,-0.5614596009254456,-0.3042757213115692,jumping
1783086879778188800,5.283188720703125,-1.7060956234849989,-1.6016000607438383,-1.373190971955657,0.324616014957428,-1.3890482187271118,-0.4635968506336212,jumping
1783086879788232700,5.293232666015625,-1.8704175861574708,-4.053941336788236,-1.128839779278636,0.1241492107510566,-2.205244302749634,-0.7294836640357971,jumping
1783086879798277600,5.303277587890625,-1.722303100311756,-6.101353466317057,-1.8997516710609197,-0.0289974957704544,-2.7474679946899414,-1.076027750968933,jumping
1783086879808321800,5.31332177734375,-1.0054894400723278,-6.672978465029597,-2.8878584530472753,-0.2282815724611282,-3.1394567489624023,-1.342911958694458,jumping
1783086879818365700,5.32336572265625,-0.5036367004398257,-4.880473408983647,-5.036404852190613,-0.3527454137802124,-3.268857002258301,-1.389180064201355,jumping
1783086879828410600,5.33341064453125,-0.9617837154671548,-1.1216169884182512,-8.788640247181057,-0.37149778008461,-2.7978639602661133,-1.065354585647583,jumping
1783086879838454800,5.343454833984375,-0.7226452890023589,2.295198995742947,-11.71397181405425,-0.3792624175548553,-1.9165372848510744,-0.5942376255989075,jumping
1783086879848499000,5.3534990234375,0.8578124688610435,3.905484759506583,-13.8838503395617,-0.1998851895332336,-0.9415402412414552,-0.0902069061994552,jumping
1783086879858542600,5.36354248046875,2.211515773275494,4.276076021482051,-13.56685710452199,0.2356305122375488,-0.0900273025035858,0.504835307598114,jumping
1783086879868587800,5.373587890625,1.0379776050925251,2.689480199255049,-10.338632724153994,0.6221467852592468,0.5438023209571838,0.9122827053070068,jumping
1783086879878632000,5.3836318359375,-2.2028471675209698,0.1264769467942416,-7.565007384008169,0.8158498406410217,1.0728918313980105,0.9214816689491272,jumping
1783086879888675600,5.393675537109375,-4.139164336043596,-1.7546223385058342,-4.7502048148214815,0.7969682812690735,1.259335160255432,0.5664836168289185,jumping
1783086879898720800,5.403720703125,-3.5495232036471367,-1.7991130760088565,-3.026744361168146,0.5207194685935974,1.1098932027816772,0.1634556204080581,jumping
1783086879908765000,5.413764892578125,-2.5012454460754987,-1.202937135016173,-3.799442551845312,-0.0007730012293905,0.8804464340209961,-0.0683626979589462,jumping
1783086879918808600,5.42380859375,-1.7987807753145693,-1.2036427990674972,-6.625334085801243,-0.5774343609809875,0.7812421917915344,-0.2289139330387115,jumping
1783086879928852700,5.433852783203125,-1.2910003261335192,-1.680402233171463,-10.9490033408463,-1.0635396242141724,0.9270888566970824,-0.359855443239212,jumping
1783086879938898000,5.44389794921875,-0.9357606548078358,-1.9822095895171163,-15.588774435049295,-1.303497076034546,1.4406124353408811,-0.4676839411258697,jumping
1783086879948941800,5.45394189453125,0.0451680522426962,-1.4371924656145274,-18.168691559040543,-1.3308300971984863,2.153745412826538,-0.5133219957351685,jumping
1783086879958985700,5.46398583984375,0.7998454330608248,-0.0386667075246572,-17.98494125779867,-0.9481211304664612,2.5145137310028076,-0.4656133353710174,jumping
1783086879969030700,5.47403076171875,1.119135546866059,1.3307067519694566,-15.758979026019572,-0.1954537630081176,2.6992273330688477,-0.3677464425563812,jumping
1783086879979074800,5.48407470703125,1.549483212276548,2.1090061236545443,-11.543201405894756,0.2642285227775574,2.4251785278320312,-0.2270677089691162,jumping
1783086879989118700,5.49411865234375,1.5829514743752775,2.64648189226687,-7.708489387747645,0.328691154718399,1.857604503631592,-0.0188620407134294,jumping
1783086879999163600,5.50416357421875,1.413687817516923,3.4022061517894264,-4.92230968645513,0.2886094450950622,1.1929612159729004,0.2625354826450348,jumping
1783086880009207800,5.514207763671875,1.7035417012184857,3.817904091209173,-2.9843793836474415,0.3258745372295379,0.4962616860866546,0.5380091667175293,jumping
1783086880019251700,5.524251708984375,2.0270745671600103,4.155725887005031,-1.5696230601161718,0.3774808347225189,-0.1550762951374054,0.771276593208313,jumping
1783086880029295600,5.534295654296875,1.4408495268173516,4.530162718492746,-0.5314484711468219,0.3684511184692383,-0.5302613377571106,1.004939079284668,jumping
1783086880039340800,5.5443408203125,0.509367718372494,4.351261610847711,1.2757552645981312,0.3234765231609344,-0.698943018913269,1.125399112701416,jumping
1783086880049385000,5.554385009765625,-0.5511683765413239,3.693753687666357,3.938739378854632,0.197919949889183,-0.7806552052497864,1.0963903665542605,jumping
1783086880059428600,5.5644287109375,-1.5670950029432773,2.4408532289549707,6.536590803465247,0.0636381655931472,-0.7720374464988708,0.9370511174201964,jumping
1783086880069473800,5.574473876953125,-2.3134271647423503,1.0216766047634185,8.99052417100668,-0.0687869861721992,-0.7351422905921936,0.6960142254829407,jumping
1783086880079518000,5.58451806640625,-2.8419714388802646,-0.166813487227261,11.581050367295742,-0.1350945681333542,-0.8082290887832642,0.3991104960441589,jumping
1783086880089561600,5.5945615234375,-3.0217095818713307,-0.8821002301603555,13.710248507368563,-0.1360064297914505,-1.0239750146865845,0.0961926952004432,jumping
1783086880099606800,5.604606689453125,-3.001762480124831,-0.9709254916913806,15.237688376271723,-0.0666291490197181,-1.3697165250778198,-0.1241369247436523,jumping
1783086880109651000,5.61465087890625,-2.835165265996754,-0.9153431590706108,16.255556090271472,0.0212953779846429,-1.750312089920044,-0.2940122485160827,jumping
1783086880119694600,5.624694580078125,-2.289676871320605,-1.0288786450967191,16.501821007615327,-0.0162953715771436,-2.087916612625122,-0.4536050856113434,jumping
1783086880129738800,5.63473876953125,-1.3202522857114671,-1.1103659649550914,15.469537814772128,-0.1215986236929893,-2.3212499618530273,-0.5967904925346375,jumping
1783086880139783700,5.64478369140625,-0.2932682221896946,-0.5634327782981098,13.647562041831016,-0.1967747211456298,-2.3676183223724365,-0.6472108960151672,jumping
1783086880149827800,5.654827880859375,0.3274463130582123,0.0487267676375806,11.69508123562336,-0.1947294175624847,-2.203987836837769,-0.5827957391738892,jumping
1783086880159871700,5.664871826171875,0.7414689396768808,0.3666374097831547,9.398331649437546,-0.0808527693152427,-1.7179430723190308,-0.4593870341777801,jumping
1783086880169916700,5.674916748046875,0.9608686464488506,0.7066119996987282,7.739546789312362,0.0767784044146537,-0.9959609508514404,-0.2897325158119201,jumping
1783086880179960800,5.6849609375,1.4221610468298196,0.6805469995938241,7.3027370882809155,0.2035428434610366,-0.3266083896160126,-0.0908049196004867,jumping
1783086880190004700,5.695004638671875,1.9962142956025897,0.2441689679779112,7.234858899319171,0.2851929664611816,0.1740722954273224,0.0796166136860847,jumping
1783086880200049700,5.705049560546875,1.719310786627978,-0.0824522193677723,7.241375733867288,0.3137230277061462,0.5643181204795837,0.2280283272266388,jumping
1783086880210093800,5.71509375,1.0385954447299242,-0.6174358789034188,7.5522022629708045,0.2900762856006622,0.8574807047843933,0.30284184217453,jumping
1783086880220137700,5.7251376953125,0.8088426862478256,-1.251912178326398,7.725606526765227,0.2488327026367187,1.032793402671814,0.3158468604087829,jumping
1783086880230181600,5.735181640625,1.0771055734533816,-1.6597576506800948,7.787061989203095,0.2538993656635284,1.068266749382019,0.3027840554714203,jumping
1783086880240226800,5.745226806640625,1.4321565172739326,-2.0029535407297314,7.975699477964639,0.3071730434894562,1.0007879734039309,0.2516005635261535,jumping
1783086880250270700,5.755270751953125,1.4935890372276306,-2.2447041955195366,8.511627140352129,0.3458357453346252,0.8799200654029846,0.1685099303722381,jumping
1783086880260314600,5.765314697265625,1.2712455320887266,-2.2413449482195076,9.310080534532666,0.2946735918521881,0.7813845276832581,0.0769047662615776,jumping
1783086880270359800,5.77535986328125,1.149033476197347,-2.045347013692558,10.13341877912283,0.12820765376091,0.6762261390686035,0.0049967537634074,jumping
1783086880280403700,5.78540380859375,0.9866978650365024,-1.6417837487027047,10.261595077180862,-0.0693405121564865,0.5635857582092285,-0.0231674332171678,jumping
1783086880290447600,5.795447509765625,0.7781049450915306,-1.1559066499024628,10.05797804595232,-0.1729191094636917,0.4484005570411682,-0.012753409333527,jumping
1783086880300492800,5.805492919921875,0.741778151756525,-0.6805168967165053,9.926462958860396,-0.1515962034463882,0.3000307381153106,0.0113982856273651,jumping
1783086880310536700,5.81553662109375,0.7831794718768447,-0.3988938118740916,10.208318245023488,-0.0693002715706825,0.0706532299518585,0.0661547482013702,jumping
1783086880320580600,5.82558056640625,1.001946945159882,-0.2522754098050296,10.699524722152947,-0.0270538013428449,-0.2542866170406341,0.1509465128183365,jumping
1783086880330624800,5.835624755859375,0.8373077332317829,-0.186706666829437,10.957870537912845,-0.0525759384036064,-0.7209411859512329,0.2293510437011718,jumping
1783086880340669700,5.845669677734375,0.6567847234733403,-0.7943468356445431,10.929504859650134,-0.0985238254070282,-1.3878942728042605,0.2117674648761749,jumping
1783086880350714400,5.85571435546875,-0.1289220018588006,-1.13148064917624,9.238082635292413,-0.0630720928311348,-2.1031789779663086,0.2087708711624145,jumping
1783086880360758500,5.865758544921875,-1.4473533557534215,-0.588120206439495,6.334329863020777,0.0765127316117286,-2.58905291557312,0.2205827683210373,jumping
1783086880370803700,5.8758037109375,-3.13333105096966,1.249640726263076,2.466550857052207,0.2743232846260071,-2.5860440731048584,0.4124880135059356,jumping
1783086880380847400,5.885847412109375,-0.1276731708414852,2.9408938776642084,1.976494134479761,0.5166956186294556,-2.6789350509643555,0.5752953290939331,jumping
1783086880390891500,5.8958916015625,4.613586267110705,4.581805227446556,3.6988755607247352,0.5544086694717407,-2.963346481323242,0.7937443256378174,jumping
1783086880400936400,5.9059365234375,-4.351088007846474,6.537649957129359,-2.070443168765306,0.1864534020423889,-1.8270251750946045,2.183227300643921,jumping
1783086880410980400,5.91598046875,-18.097856858360768,5.27673570331037,-8.48602098993063,-0.2557178735733032,0.4094756543636322,2.7549915313720703,jumping
1783086880421024500,5.9260244140625,-1.5748853645585477,2.670132232445478,-13.24314537488222,-0.8752449154853821,1.4335415363311768,2.0376951694488525,jumping
1783086880431068400,5.936068359375,7.685290882989764,-0.5163195833370089,-28.859257898712155,-2.508952379226685,3.368034601211548,1.4339615106582642,jumping
1783086880441113300,5.94611328125,8.189295466893912,0.2209966205745935,-32.53832050546408,-2.2503552436828613,4.469964504241943,1.272409439086914,jumping
1783086880451157500,5.956157470703125,7.366721192413568,-0.2257505371034145,-19.10096188751459,0.2827755808830261,3.2305898666381836,1.3047215938568115,jumping
1783086880461201400,5.966201416015625,2.5392884687438606,-2.840043977949023,-7.698489971780776,2.003490924835205,1.5708694458007812,1.2957775592803955,jumping
1783086880471246600,5.97624658203125,-4.2024867613971235,-2.718877558653056,-3.1967291719079016,1.819016933441162,0.4017560482025146,0.8222358822822571,jumping
1783086880481290500,5.98629052734375,-7.944145817315578,-2.0851170062839985,-1.8662655810445543,0.8918533325195312,-0.0105758197605609,0.1282185018062591,jumping
1783086880491334400,5.99633447265625,-7.204447978964447,-1.2532087940081953,-3.6025457687824964,-0.006222391501069,0.0201815608888864,-0.3726371526718139,jumping
1783086880501379600,6.006379638671875,-3.245647224333882,-1.232270927658677,-4.596816334095597,-0.5640427470207214,-0.1746740341186523,-0.7181191444396973,jumping
1783086880511423500,6.016423583984375,0.0395076153282076,-1.9805409256525337,-4.906353992432355,-0.6494460701942444,-0.5625498294830322,-0.9751051068305968,jumping
1783086880521467400,6.02646728515625,0.6824403390597552,-4.10252708851993,-4.66870609678626,-0.4399296939373016,-0.8272550106048584,-1.2503647804260254,jumping
1783086880531511600,6.036511474609375,-0.2491639267209917,-5.467027973541617,-3.3373967027485367,-0.0602406933903694,-1.1072286367416382,-1.5094751119613647,jumping
1783086880541556500,6.046556396484375,-0.923608590851724,-3.3770325475662943,-1.9995833336442708,0.4934603869915008,-1.36581289768219,-1.5043154954910278,jumping
1783086880551600400,6.056600341796875,-1.070814729680866,-0.2167988766238093,-2.3166052102565766,0.8235650658607483,-1.309018611907959,-1.1839603185653689,jumping
1783086880561644500,6.06664453125,-0.941467342016846,1.841935149647295,-3.004090630811453,0.4634845852851867,-1.0084112882614136,-0.6533599495887756,jumping
1783086880571689500,6.076689453125,-0.9831363000974058,3.033995939731598,-4.405561356312036,-0.2095622718334198,-0.3987234532833099,-0.0909884795546531,jumping
1783086880581733400,6.0867333984375,-1.1475832043237983,2.3073476986981927,-6.059191317892075,-0.5105698108673096,0.2264271676540374,0.2778286039829254,jumping
1783086880591777500,6.096777587890625,-1.4479244336396455,0.6924231692180037,-6.869120630332827,-0.3210408985614776,0.6336825489997864,0.4497644305229187,jumping
1783086880601822500,6.106822509765625,-1.8667204852052033,-1.3045520277544855,-7.0886284736543885,0.0518145635724067,0.8969160318374634,0.4367779493331909,jumping
1783086880611866400,6.116866455078125,-2.475144497874379,-3.277826907926798,-6.405142351868748,0.2851727306842804,0.9584827423095704,0.2220544517040252,jumping
1783086880621910500,6.12691064453125,-3.185815271444618,-4.8355561166316265,-5.7338850125372405,0.282396137714386,0.851527988910675,-0.1528424173593521,jumping
1783086880631954400,6.136954345703125,-2.970616523493826,-4.342514240768551,-5.832261800137162,0.1735727190971374,0.5936601758003235,-0.4433442950248718,jumping
1783086880641999400,6.146999267578125,-2.4108140645220875,-2.4914696097314355,-7.099463171401619,0.0944986268877983,0.3857360780239105,-0.5794726014137268,jumping
1783086880652043500,6.15704345703125,-1.407313021788001,-0.6801034936100244,-8.965379208356142,0.0154615994542837,0.3966750204563141,-0.6195425391197205,jumping
1783086880662087400,6.16708740234375,-0.4609607572738081,0.5277880489431321,-11.352745469534396,-0.167825162410736,0.730400562286377,-0.6063620448112488,jumping
1783086880672132600,6.177132568359375,-0.1016309670902788,1.6128985766105353,-13.48716222103834,-0.377831369638443,1.3043770790100098,-0.4878311157226562,jumping
1783086880682176500,6.187176513671875,0.6815079535804689,1.5298349473461508,-14.163800084364413,-0.4170450866222381,1.796002984046936,-0.3864254057407379,jumping
1783086880692220400,6.197220458984375,0.5936255623901262,0.3287592222876846,-14.91618847746253,-0.2944051921367645,2.117489814758301,-0.3515124320983886,jumping
1783086880702264600,6.2072646484375,0.5222022116348147,-0.9556725391104816,-15.592109716951846,-0.1469997465610504,2.020393133163452,-0.371359646320343,jumping
1783086880712309500,6.2173095703125,1.3643740437716243,-2.6843241316661235,-15.876147607851028,0.0101472493261098,1.3610624074935913,-0.4679032564163208,jumping
1783086880722353400,6.227353515625,1.5996730382040143,-4.42498794131577,-16.065996810489892,0.2357985377311706,0.407558262348175,-0.7393184900283813,jumping
1783086880732397600,6.2373974609375,1.4482770464695989,-4.555064520037174,-15.406568440639973,0.431650847196579,-0.4439485967159271,-1.1010907888412476,jumping
1783086880742442500,6.2474423828125,1.218594503679499,-2.134749490589648,-13.628971907651424,0.6152065396308899,-0.928555190563202,-1.266772985458374,jumping
1783086880752486400,6.257486328125,0.1120097560298629,2.062423966830224,-10.746058509790895,0.74259352684021,-0.8924528360366821,-1.184944748878479,jumping
1783086880762530600,6.267530517578125,-1.09946302427724,6.142260061722993,-5.95220393833518,0.7519587874412537,-0.4664791822433471,-0.8765215873718262,jumping
1783086880772575500,6.277575439453125,-1.2495851966835558,8.000496065568923,0.520172459372878,0.4421277046203613,-0.2276332974433899,-0.4572052955627441,jumping
1783086880782619400,6.287619384765625,-0.7139915885560214,7.245070496731996,5.452413172733784,0.0570509955286979,-0.3283311724662781,-0.0708574429154396,jumping
1783086880792663600,6.29766357421875,-0.8665532630689442,4.965180275410414,8.275865496844053,-0.1194928810000419,-0.6079697012901306,0.0900331735610961,jumping
1783086880802707500,6.30770751953125,-0.9565167348496616,3.17793211697936,9.851230315482615,-0.1293387860059738,-0.8879157304763794,0.0956431701779365,jumping
1783086880812752400,6.31775244140625,0.2520657856423408,2.449680386272073,10.225482145792244,0.105741374194622,-1.2185364961624146,0.132714107632637,jumping
1783086880822796500,6.327796630859375,0.861507450921461,2.2075996227450667,11.461857001638412,0.5235837697982788,-1.6266300678253174,0.1968549191951751,jumping
1783086880832840400,6.33784033203125,0.7276632632948458,1.291171006525308,14.212431136542556,0.8375840783119202,-2.143751621246338,0.1796213388442993,jumping
1783086880842885400,6.347885498046875,-0.1584494173772632,0.3133892191983759,16.487113267827034,0.8805164694786072,-2.5631136894226074,0.0694823637604713,jumping
1783086880852929500,6.357929443359375,-0.8236201302714645,0.5978863981723785,17.523084793794155,0.6567472815513611,-2.6940629482269287,-0.0690739154815673,jumping
1783086880862973400,6.367973388671875,-0.6883744783490896,2.3244401416659355,17.234470096498725,0.3065516054630279,-2.463345766067505,-0.099458210170269,jumping
1783086880873018600,6.3780185546875,0.5113170988745988,3.8321179100006817,16.597690780830384,-0.0618911199271678,-2.0485904216766357,-0.0182493738830089,jumping
1783086880883062500,6.3880625,2.0350437924735245,3.528063651511073,15.43005102303624,-0.3391857743263244,-1.6043124198913574,0.0776641741394996,jumping
1783086880893106400,6.3981064453125,2.7874457757055757,2.448593029426783,12.727533939814569,-0.4207477271556854,-1.0922776460647583,0.0970037803053855,jumping
1783086880903150600,6.408150634765625,2.522441671100258,1.535298035057634,9.723571903818844,-0.344818502664566,-0.4407811164855957,0.0508481338620185,jumping
1783086880913195300,6.4181953125,1.8909809201061725,0.7746521012239158,7.961578598153591,-0.2169846296310424,0.2724991738796234,-0.0523738637566566,jumping
1783086880923239400,6.428239501953125,1.6234781305529176,-0.048609424868226,7.141491464313864,-0.1168393269181251,0.9311323165893556,-0.2185126990079879,jumping
1783086880933283600,6.43828369140625,1.7273691515296696,-0.8050320419184863,6.729755998784303,-0.1010001748800277,1.4887841939926147,-0.4211819171905517,jumping
1783086880943328300,6.448328369140625,2.0671470498293636,-1.4331578032709658,6.577265343680978,-0.172104150056839,1.9275050163269043,-0.6051400303840637,jumping
1783086880953372400,6.458372314453125,2.4233048589132724,-2.0132336733341214,6.62429655944705,-0.2450646311044693,2.229149103164673,-0.7603223919868469,jumping
1783086880963416600,6.46841650390625,2.58804110147506,-2.446035600028932,6.8418959387987845,-0.3437133729457855,2.4269447326660156,-0.8875237107276917,jumping
1783086880973460500,6.47846044921875,2.334082268627733,-2.717017317739129,7.288961660906672,-0.4798536300659179,2.4634594917297363,-0.9494763016700744,jumping
1783086880983505400,6.48850537109375,1.667009667634964,-3.154536043822765,7.618613301989436,-0.5617303848266602,2.346402406692505,-0.9669586420059204,jumping
1783086880993549600,6.498549560546875,0.9945659680631012,-3.448361753764748,7.906276982170343,-0.5384719371795654,2.1110730171203613,-0.9825128316879272,jumping
1783086881003593500,6.508593505859375,0.5912026826247573,-3.240115309169888,8.190383846652507,-0.4639137983322143,1.8630179166793823,-0.9759763479232788,jumping
1783086881013638400,6.518638427734375,0.4828934068143367,-2.3878107900753616,8.7812133120507,-0.4087850153446197,1.6139668226242063,-0.8819209337234497,jumping
1783086881023682600,6.5286826171875,0.551248492572829,-1.4867064381070434,9.763501178625225,-0.3899455964565277,1.309935450553894,-0.7135298252105713,jumping
1783086881033726500,6.5387265625,0.5006127129761502,-1.0100463727243243,10.694414831793308,-0.3991135060787201,0.982172966003418,-0.5015872120857239,jumping
1783086881043771400,6.548771484375,0.2180330580612644,-0.6056053019866346,11.58938798753023,-0.4111385345458984,0.7062080502510071,-0.2618758380413055,jumping
1783086881053815300,6.558815185546875,-0.1119304802485741,-0.5698001213729381,12.15196809452176,-0.4312888085842132,0.4376966655254364,-0.0243287812918424,jumping
1783086881063859500,6.568859375,-0.0090644366716966,-0.7177033025555313,12.234017432177064,-0.4186365008354187,0.1542547643184662,0.1469595283269882,jumping
1783086881073903600,6.578903564453125,0.2851415595584549,-0.862411340958625,11.481396399366854,-0.2746793329715729,-0.196375697851181,0.2828699350357055,jumping
1783086881083948300,6.5889482421875,0.6282566942557692,-0.9626062838964164,10.54536058087945,-0.0211403183639049,-0.6514250636100769,0.3623942732810974,jumping
1783086881093992400,6.598992431640625,0.8362368160646408,-0.9498816807493566,9.666123338934778,0.2001135051250457,-1.144418478012085,0.3453055620193481,jumping
1783086881104036600,6.60903662109375,-0.5812766241550446,-0.6571583790913224,8.161617186373471,0.2953704595565796,-1.582829236984253,0.2655903995037079,jumping
1783086881114081300,6.619081298828125,-1.8583483781792225,0.3370494962491094,6.204088449126481,0.3487082421779632,-1.8542120456695557,0.1933396458625793,jumping
1783086881124125400,6.62912548828125,-1.2443525567270814,1.6065553450636565,4.716231818071008,0.322451502084732,-1.963565230369568,0.2043053954839706,jumping
1783086881134169600,6.639169677734375,-1.5979542515873908,2.5330910754084583,2.700394684240222,0.230645403265953,-1.7660255432128906,0.2704063951969147,jumping
1783086881144214300,6.64921435546875,-0.992229341809079,3.6609012193784114,0.8342758181899785,0.2394224405288696,-1.4704962968826294,0.3640173375606537,jumping
1783086881154258400,6.659258544921875,1.8609562225900589,3.4652526828110215,0.4364607414633035,0.2150465250015258,-1.4863426685333252,0.3713346421718597,jumping
1783086881164302600,6.669302490234375,-0.3512237136825919,4.514130159841478,-3.362770213457942,0.046534314751625,-0.9332007765769958,0.7350695729255676,jumping
1783086881174346500,6.679346435546875,-12.07237141071558,6.460359212177991,-12.079002227032184,-0.3079662322998047,1.0512465238571167,1.825877070426941,jumping
1783086881184391400,6.689391357421875,-7.6770362648636095,3.0763933582171794,-17.852537697434425,-0.8279677033424377,3.008474349975586,1.5217374563217163,jumping
1783086881194435600,6.699435546875,5.464259093350171,-3.3218744317069646,-24.31128479824066,-2.3466172218322754,4.494996070861816,0.3993971645832062,jumping
1783086881204479500,6.7094794921875,10.08414124573469,-3.1618262008309364,-25.623230151116847,-3.078047275543213,4.212141513824463,0.0359331369400024,jumping
1783086881214524400,6.7195244140625,8.555112061813473,-1.3153102992646395,-20.93739639391899,-1.4612385034561155,2.7257673740386963,0.2411981374025344,jumping
1783086881224568300,6.729568359375,4.088647908510268,-3.019130379033089,-12.500474073678255,0.9984596371650696,0.6851165890693665,0.2674833834171295,jumping
1783086881234612500,6.739612548828125,-1.0335935447894036,-3.611466741862893,-5.795034770026803,1.9656949043273928,-0.928982436656952,-0.0733698159456253,jumping
1783086881244657400,6.749657470703125,-4.156822157809138,-2.0993277563355863,-1.6343588593989609,1.8622586727142336,-1.6849908828735352,-0.3598158061504364,jumping
1783086881254701300,6.759701416015625,-4.983088857066631,-0.7089103397689759,1.3176654840886592,1.2062792778015137,-1.8753796815872192,-0.5729765295982361,jumping
1783086881264745500,6.769745361328125,-4.612297688604891,-0.1070392558746039,2.341076803690195,0.369956761598587,-1.8913167715072632,-0.6311694383621216,jumping
1783086881274789600,6.77978955078125,-3.0461846824362873,-0.9330145709700882,0.9776087688475846,-0.364585131406784,-1.8803030252456665,-0.6763539910316467,jumping
1783086881284834300,6.789834228515625,-1.3202739130213856,-2.5053324231281877,-1.0039362192809582,-0.7858281135559082,-2.116842746734619,-0.8096226453781128,jumping
1783086881294878500,6.79987841796875,0.2487291885655373,-4.2349183739244936,-3.122838006266951,-0.8315985202789307,-2.378561496734619,-1.055446743965149,jumping
1783086881304922600,6.809922607421875,0.915922274132818,-3.3712416892051693,-5.430147564911842,-0.4970419704914093,-2.4747073650360107,-1.0875366926193235,jumping
1783086881314967300,6.81996728515625,1.0493126535773276,-0.17486746821478,-6.70407970573604,0.0099991308525204,-2.424776315689087,-0.714225709438324,jumping
1783086881325011500,6.830011474609375,0.4040606931179761,2.7405373095363377,-8.116611338955163,0.3501136600971222,-1.955943942070007,-0.1207803636789321,jumping
1783086881335055600,6.8400556640625,-0.3073313804641366,4.307077016684413,-9.082926560372114,0.514167845249176,-1.1171592473983765,0.4420435726642608,jumping
1783086881345100300,6.850100341796875,-0.7758281592659652,3.936264513173699,-9.644665540364384,0.2841359674930572,0.0889722853899002,0.8371075391769409,jumping
1783086881355145200,6.860145263671875,-1.6806280047513544,1.8532278202950951,-8.845113245031238,-0.1704208999872207,1.1805684566497805,0.9422704577445984,jumping
1783086881365189400,6.870189453125,-2.702563552711904,-0.7833008332341909,-7.243191258856654,-0.2977064251899719,1.713670015335083,0.7732768654823303,jumping
1783086881375233300,6.8802333984375,-2.7556594753444195,-2.4398227168634534,-5.805229416304827,-0.0197022296488285,1.6999554634094238,0.4815675318241119,jumping
1783086881385278200,6.8902783203125,-2.1183014830052853,-2.806803971648216,-4.3850323630243535,0.3381222188472748,1.2972813844680786,0.1827879399061203,jumping
1783086881395322400,6.900322265625,-1.2043527009025214,-2.048128314974159,-3.719154963165521,0.3868231773376465,0.710507333278656,-0.0204218998551368,jumping
1783086881405366300,6.9103662109375,-0.778304705447331,-0.5423934974007308,-4.630885192435979,0.0558598488569259,0.2406823635101318,-0.0173789821565151,jumping
1783086881415411200,6.9204111328125,-0.0440486197587102,0.5029555132426321,-6.7527867457598445,-0.3703636229038238,0.0001989221200346,0.0175776705145835,jumping
1783086881425455400,6.930455322265625,0.7240732759788632,0.97730496359542,-9.687490536612271,-0.6804013252258301,0.0642903894186019,0.0343604646623134,jumping
1783086881435499300,6.940499267578125,0.9433473105445505,1.7808815460085867,-12.487634465849398,-0.6532530784606934,0.4223763644695282,0.1159991323947906,jumping
1783086881445543200,6.950543212890625,0.4477040930766612,1.8082447692304848,-14.182057041066884,-0.3089897930622101,0.983353853225708,0.1838356107473373,jumping
1783086881455588400,6.96058837890625,-1.0655183768384158,1.4269585102394222,-14.504882635521888,0.0793236121535301,1.6684284210205078,0.1972254514694214,jumping
1783086881465632300,6.97063232421875,-2.138560573310405,1.1349473023734986,-13.212180912297963,0.222146600484848,2.20792555809021,0.1530021131038665,jumping
1783086881475676400,6.980676513671875,-2.406329904845357,0.745886756119132,-11.595680950194597,0.1375371515750885,2.484281063079834,0.0743227526545524,jumping
1783086881485721300,6.990721435546875,-2.603709502989054,0.2397470598824322,-10.78701011338234,0.0129271335899829,2.607389450073242,-0.0675520151853561,jumping
1783086881495765200,7.00076513671875,-2.1025391195975245,0.1235154666401445,-9.562086041355132,0.0129473730921745,2.5365405082702637,-0.2528912425041199,jumping
1783086881505809400,7.010809326171875,-1.0584504112135618,0.6175657888934016,-7.975155872607231,0.0873015224933624,2.276090621948242,-0.4170037508010864,jumping
1783086881515854300,7.020854248046875,-0.1408914392570033,1.3188783670097588,-6.366677304396033,0.1141437888145446,1.9354976415634155,-0.4706214368343353,jumping
1783086881525898200,7.030898193359375,0.7267683602817356,2.823874348914623,-4.044520889753103,-0.0129573075100779,1.3775781393051147,-0.3185945451259613,jumping
1783086881535942400,7.0409423828125,1.471028830373287,4.216867168927193,-2.0971850452184677,-0.2067419439554214,0.6000344157218933,-0.0513686761260032,jumping
1783086881545986000,7.050986083984375,1.3285381757587194,4.467685804052651,-0.8576701377809047,-0.2841671705245971,-0.1857069283723831,0.21762216091156,jumping
1783086881556031200,7.06103125,0.798400641079992,4.209824849200248,0.8090759104818105,-0.1491195857524871,-0.775757372379303,0.4256491363048553,jumping
1783086881566075400,7.071075439453125,0.864849820151925,3.641000002600253,3.0100889944434166,-0.0388083346188068,-1.2205967903137207,0.5502538084983826,jumping
1783086881576119300,7.081119384765625,1.3565394046232104,2.9882480417743325,4.807769699561596,-0.0432587452232837,-1.383236527442932,0.6288639307022095,jumping
1783086881586164200,7.091164306640625,1.3351928113423288,2.233988155715912,6.828932412329316,-0.1332006752490997,-1.3245512247085571,0.6390400528907776,jumping
1783086881596208400,7.10120849609375,0.6151343239627778,1.2467325837314127,9.43691243224442,-0.2524679601192474,-1.2077841758728027,0.5655964612960815,jumping
1783086881606252300,7.111252197265625,-0.1633313076673075,0.5322584723554551,12.65212593986988,-0.3736869394779205,-1.2614492177963257,0.5101610422134399,jumping
1783086881616297200,7.121297119140625,-0.7819644700638949,0.0342234643802046,15.186618698769808,-0.5342448949813843,-1.4758234024047852,0.500434398651123,jumping
1783086881626341400,7.13134130859375,-1.7758328843168911,-0.7176932195529341,16.30188178811669,-0.7596960663795471,-1.7097622156143188,0.4236019849777221,jumping
1783086881636385300,7.14138525390625,-2.9996915190696716,-1.3423691327124834,15.87463252711296,-0.954645335674286,-1.7939082384109497,0.2283867001533508,jumping
1783086881646429200,7.15142919921875,-3.364197031390667,-1.56055332621485,14.667922157168388,-0.9860284328460692,-1.7678451538085938,-0.0011712647974491,jumping
1783086881656474400,7.161474365234375,-2.559443368022144,-1.894680066885054,13.19038642911911,-0.7621945738792419,-1.7065210342407229,-0.2362783253192901,jumping
1783086881666518300,7.171518310546875,-1.2313245867192744,-1.9926029732376336,11.850702005445957,-0.3532620668411255,-1.574433207511902,-0.4425778985023498,jumping
1783086881676562400,7.1815625,-0.0674446198500692,-1.3458154737740755,10.569684874796868,0.1035933494567871,-1.2005711793899536,-0.5242740511894226,jumping
1783086881686607400,7.191607421875,0.6151375388331711,-0.8864733306780457,9.314484906971456,0.4341864585876465,-0.5548166036605835,-0.5106002688407898,jumping
1783086881696651300,7.2016513671875,1.3128063536196946,-0.9856000598624348,8.62283593699634,0.5860913395881653,0.1744572967290878,-0.4765991866588592,jumping
1783086881706695400,7.2116953125,2.2051491608530283,-1.6091108747653662,8.746715414643287,0.5596647262573242,0.7810240387916565,-0.4569446146488189,jumping
1783086881716739000,7.221739013671875,2.7629607382684944,-2.2297221688345075,8.760589041694999,0.3561382293701172,1.1989110708236694,-0.4410966634750366,jumping
1783086881726784300,7.2317841796875,2.965689003963768,-2.8274510383576152,8.37551654216349,0.0095776943489909,1.3912297487258911,-0.4248760640621185,jumping
1783086881736828400,7.241828369140625,2.912585482546687,-3.3410552252560852,7.725386746534705,-0.3137593567371368,1.415807843208313,-0.3907915949821472,jumping
1783086881746872000,7.2518720703125,2.466281684722006,-3.703823538520932,6.987482221341133,-0.4766777157783508,1.3102504014968872,-0.3373632431030273,jumping
1783086881756917200,7.261917236328125,2.003363875096291,-3.922217575381696,6.766040195086598,-0.4063268303871155,1.0926976203918457,-0.2981598973274231,jumping
1783086881766961400,7.27196142578125,1.4769533981166778,-3.9272459249377247,7.258208795246482,-0.2157148569822311,0.76043301820755,-0.2969852387905121,jumping
1783086881777005300,7.28200537109375,0.7737031299360096,-3.726872697935998,8.094116598552464,-0.0756123512983322,0.477379709482193,-0.2980273365974426,jumping
1783086881787050200,7.29205029296875,0.1902480657633393,-3.31879663169682,9.107827777394652,-0.0559095777571201,0.3081346750259399,-0.2998562157154083,jumping
1783086881797094400,7.302094482421875,-0.0941630423624068,-2.8760625090524554,10.126457123416662,-0.1426822990179062,0.2109646946191787,-0.3265243172645569,jumping
1783086881807138300,7.31213818359375,-0.3549422227490693,-2.1691408588826655,10.693220069050788,-0.2850671112537384,0.1891193091869354,-0.318187803030014,jumping
1783086881817182200,7.32218212890625,-0.4252376654529944,-1.4967352262988685,11.287215889525411,-0.4133800566196441,0.1302594542503357,-0.2478761076927185,jumping
1783086881827227400,7.332227294921875,-0.150815744161047,-1.3035674006313085,11.663740340942145,-0.4762190282344818,-0.1263053119182586,-0.1523597836494445,jumping
1783086881837271300,7.342271240234375,0.1620785676598548,-1.5311366775944828,11.387784049689769,-0.4292715191841125,-0.5454322099685669,-0.1099870353937149,jumping
1783086881847315200,7.352315185546875,-0.0292061476748436,-1.6157672639146443,10.50082118192911,-0.2582350373268127,-1.0710779428482056,-0.1474848687648773,jumping
1783086881857360400,7.3623603515625,-1.3229841948933898,-1.719946015791595,8.784450394275783,0.0154971508309245,-1.5498112440109253,-0.2633523643016815,jumping
1783086881867404300,7.372404296875,-2.259553535735607,-1.4273334810316562,6.684219405490159,0.3464013040065765,-1.8411115407943728,-0.4014452397823334,jumping
1783086881877448400,7.382448486328125,-2.057549492661655,-0.1981710407823324,5.191835067877173,0.6223897933959961,-2.0250401496887207,-0.3585800528526306,jumping
1783086881887493400,7.392493408203125,-0.4138625406861305,1.9220719316795467,4.3636119738548995,0.6411405205726624,-2.2399680614471436,-0.1066125258803367,jumping
1783086881897537300,7.402537353515625,2.962459228262305,2.6865122893601656,4.046178009310364,0.4489798545837402,-2.6165897846221924,0.0428057238459587,jumping
1783086881907581400,7.41258154296875,4.135999150010943,2.3081489320784807,3.345309960091114,0.1498342752456665,-3.186875820159912,0.0866262689232826,jumping
1783086881917625000,7.422625,-14.070622618973257,8.53583452989161,-7.374564307129383,-0.2173496037721634,-1.3609355688095093,2.0524682998657227,jumping
1783086881927670300,7.432670166015625,-10.88441717916727,6.231100374692678,-18.402362367749213,-0.235733687877655,1.9756226539611816,1.888193964958191,jumping
1783086881937714400,7.44271435546875,1.6658146126314997,6.880921542763709,-22.13400388752222,-1.081994891166687,4.33683443069458,1.7643578052520752,jumping
1783086881947758000,7.452758056640625,8.601838157153129,3.1891604902192947,-27.24581381704807,-2.5103156566619873,6.446267604827881,1.6232378482818604,jumping
1783086881957803300,7.46280322265625,5.013344879120588,-2.9419039314895867,-22.194702978634833,-2.343224048614502,6.517646312713623,1.2407469749450684,jumping
1783086881967847400,7.472847412109375,2.0566998900949955,-8.367138589918612,-16.809624389505384,-0.4748181402683258,5.676720142364502,0.4867483973503113,jumping
1783086881977891300,7.482891357421875,1.0186886749938129,-7.928522716248035,-7.035558562245964,1.4475908279418943,3.518693208694458,0.1297449618577957,jumping
1783086881987935200,7.492935302734375,1.2613862552449109,-4.045825250349939,-0.5650269156217574,2.0371742248535156,1.0018030405044556,-0.2282033860683441,jumping
1783086881997980400,7.50298046875,0.2396088935207575,-0.4374906690329313,0.9377823698937892,1.5676923990249634,-0.6640710830688477,-0.427289068698883,jumping
1783086882008024300,7.5130244140625,-2.818144865351915,1.0319164053574204,-0.6476292109847068,0.5868412256240845,-1.2795337438583374,-0.44370037317276,jumping
1783086882018068200,7.523068115234375,-3.6326027611330143,0.1423962543293833,-0.6518985588669777,-0.1547013223171234,-1.6301623582839966,-0.5237840414047241,jumping
1783086882028113400,7.533113525390625,-2.8736002105921505,-2.9289158551007506,-0.6049123512864113,-0.4805184304714203,-2.149517059326172,-0.8330173492431641,jumping
1783086882038157300,7.5431572265625,-1.8235154035985468,-5.143986690509319,-1.3688514814466235,-0.416321337223053,-2.6358237266540527,-1.2779325246810913,jumping
1783086882048201200,7.553201171875,-0.6421615201633423,-3.2025831586331126,-3.334727775800228,-0.2184499204158783,-2.818370819091797,-1.4449505805969238,jumping
1783086882058246400,7.563246337890625,0.8217430112879723,0.4875812723696232,-5.604930131322146,-0.008601889014244,-2.591788530349731,-1.1732195615768433,jumping
