time,seconds_elapsed,accel_x,accel_y,accel_z,gyro_x,gyro_y,gyro_z,label
1783090618708047600,0.067047607421875,0.2211167398229241,-0.4826438159674406,-0.4146329405367374,0.0184589941054582,-0.3175826668739319,-0.0657796785235405,jumping
1783090618718092800,0.0770927734375,0.2805122009910643,-0.4701128356963396,-0.3799316295117139,-0.0366689823567867,-0.3303870558738708,-0.0856063216924667,jumping
1783090618728136700,0.08713671875,0.2422480829179286,-0.377061334772408,-0.2478688454091548,-0.0841936245560646,-0.3327418267726898,-0.073131538927555,jumping
1783090618738181600,0.097181640625,0.0914611629925668,-0.2268928390063345,-0.1942787095189094,-0.0781588479876518,-0.316691905260086,-0.0563150085508823,jumping
1783090618748225800,0.107225830078125,-0.182829240874201,-0.1968565971828997,-0.171619718465209,-0.0314533933997154,-0.2735433578491211,-0.0434604622423648,jumping
1783090618758270700,0.117270751953125,-0.3642972763977944,-0.2423211481541395,-0.0402577761083841,0.0099010067060589,-0.2157213389873504,-0.0301181674003601,jumping
1783090618768314600,0.127314697265625,-0.4549200888700783,-0.2724497444361448,0.1610644221812486,0.0033746634144335,-0.1349495351314544,-0.0159930270165205,jumping
1783090618778359600,0.137359619140625,-0.4994608029946684,-0.2624341079868376,0.3324684520691633,-0.048600897192955,-0.0283564329147338,0.0034591064322739,jumping
1783090618788403700,0.14740380859375,-0.4074912520885467,-0.2227345502831041,0.4259218117922544,-0.1418240666389465,0.0931409671902656,0.0324034057557582,jumping
1783090618798449000,0.157448974609375,-0.2450458969429135,-0.1587942852921783,0.4395990394890308,-0.2323549836874008,0.1942368894815445,0.0579418502748012,jumping
1783090618808493000,0.1674931640625,-0.1257663143068552,-0.1255567632094025,0.4301537502735852,-0.2747884690761566,0.2539457678794861,0.0765767842531204,jumping
1783090618818537200,0.177537109375,-0.0558716709561646,-0.1490983823165297,0.3392828082591295,-0.2627495527267456,0.2601692676544189,0.0967719480395317,jumping
1783090618828582100,0.18758203125,0.0159963182941079,-0.1914940472364425,0.1292161624997854,-0.2344146072864532,0.2096384316682815,0.1329733729362487,jumping
1783090618838626000,0.1976259765625,0.038568215586245,-0.1927142366811633,-0.0823603033006191,-0.2137995809316635,0.111333779990673,0.1839749068021774,jumping
1783090618848671200,0.207671142578125,0.0578204669363796,-0.2027420019596815,-0.2483773794531822,-0.2023535817861557,-0.018312893807888,0.2318393588066101,jumping
1783090618858715100,0.217715087890625,0.0622102263279259,-0.1884422584503889,-0.3563900104045868,-0.192107692360878,-0.1496224701404571,0.2669435143470764,jumping
1783090618868760000,0.227760009765625,0.0980443407751619,-0.1452985516421496,-0.355986690300703,-0.1901156455278396,-0.2728546559810638,0.3168780505657196,jumping
1783090618878804200,0.23780419921875,0.1039990113958716,-0.0569951220281422,-0.3355868763506412,-0.1903420388698578,-0.3939016461372375,0.3696709871292114,jumping
1783090618888849200,0.24784912109375,0.0105320615388453,0.0723562111586332,-0.2501210082501173,-0.1551273316144943,-0.4983041882514953,0.4218652248382568,jumping
1783090618898893000,0.25789306640625,-0.0139507839411497,0.1944246938608586,-0.0640250206649303,-0.0743301063776016,-0.5824066996574402,0.4605557918548584,jumping
1783090618908938200,0.267938232421875,0.003140636113286,0.3285914645053446,0.3384843513578176,-0.0020782793872058,-0.6905568838119507,0.4900119602680206,jumping
1783090618918982100,0.277982177734375,0.090228844718635,0.3435628236658871,0.8366033843547105,0.0293407309800386,-0.8043175339698792,0.49217289686203,jumping
1783090618929027000,0.288027099609375,0.0666138681143522,0.2271669797725975,1.1511994951248168,-0.0101371696218848,-0.9002176523208618,0.4740152060985565,jumping
1783090618939071200,0.2980712890625,-0.015993249554187,0.0475843196041882,1.2115706694573165,-0.1041998118162155,-0.9506218433380128,0.4539102017879486,jumping
1783090618949116200,0.3081162109375,-0.1736651066876947,-0.0762542415104806,0.95615155479908,-0.187768742442131,-0.9191805720329284,0.4252620339393616,jumping
1783090618959160000,0.31816015625,-0.4528619872964918,-0.1816619506604969,0.4430500567257404,-0.2147830724716186,-0.7904228568077087,0.3864341676235199,jumping
1783090618969205200,0.328205322265625,-0.6690091220133006,-0.4731944350987672,-0.1533335356682539,-0.1803428083658218,-0.5884817242622375,0.3308912813663482,jumping
1783090618979249200,0.338249267578125,-0.7679103718787431,-0.7124205398470163,-0.739040251225233,-0.1128212213516235,-0.3261677026748657,0.2785705626010895,jumping
1783090618989294000,0.348294189453125,-0.806196409522742,-0.7619991020083426,-1.2523819877952336,-0.0528556182980537,-0.0857071653008461,0.2337429076433181,jumping
1783090618999338200,0.358338134765625,-0.746781951393187,-0.8558991825856268,-1.50256027919054,-0.0063407742418348,0.1220685169100761,0.1790163666009903,jumping
1783090619009383200,0.368383056640625,-0.5865775070421397,-1.0232840399600565,-1.592262177425623,0.0391681194305419,0.2556705176830292,0.1013197153806686,jumping
1783090619019427000,0.378427001953125,-0.4904021750092506,-1.1122731137506665,-1.5186638572514055,0.1123719438910484,0.3020519316196441,0.0054750214330852,jumping
1783090619029472000,0.388471923828125,-0.549047402331978,-1.0318401252508165,-1.3755243833392858,0.2195820212364196,0.3451517224311828,-0.0813429653644561,jumping
1783090619039516200,0.39851611328125,-0.6519254468739032,-0.8540442023687064,-1.0716858134269711,0.2876150608062744,0.4159668385982513,-0.138817623257637,jumping
1783090619049561300,0.408561279296875,-0.7441321675367653,-0.6933578197196125,-0.3982558062314987,0.2519643902778625,0.4633836150169372,-0.1627562493085861,jumping
1783090619059605200,0.418605224609375,-0.791988728211075,-0.5174845354631543,0.4545014250665903,0.1462913006544113,0.4394863843917846,-0.1351953446865081,jumping
1783090619069650200,0.428650146484375,-0.7141176991537213,-0.359653396114707,1.0541939958781004,0.0551874972879886,0.3770781457424164,-0.0712320655584335,jumping
1783090619079694300,0.4386943359375,-0.5737772083103656,-0.3496653783246874,1.2266034034162758,0.0174490828067064,0.3043569326400757,-7.22629483789e-05,jumping
1783090619089739000,0.448739013671875,-0.3510205923259258,-0.3988368209898472,1.307570791053772,0.0224350541830062,0.2105779945850372,0.0696407705545425,jumping
1783090619099783200,0.458783203125,0.0331377149701118,-0.401959044663608,1.4706833779364823,0.0479409769177436,0.0930409058928489,0.1411970108747482,jumping
1783090619109828400,0.468828369140625,0.3619372692681848,-0.4615950365893542,1.5499199962586163,0.086567997932434,-0.0005194046534597,0.2049717307090759,jumping
1783090619119872000,0.4788720703125,0.5581036922298371,-0.5582828481890261,1.555478214907646,0.1249069571495056,-0.0248761139810085,0.2551712989807129,jumping
1783090619129917200,0.488917236328125,0.5386334142148494,-0.5309022354409099,1.660360731139779,0.1537420749664306,0.0432392917573452,0.3031313717365265,jumping
1783090619139961300,0.49896142578125,0.3640786652110517,-0.3808944831945002,1.9031179326236247,0.1721471697092056,0.1862159818410873,0.3529053628444671,jumping
1783090619150006000,0.509006103515625,0.2058867297261953,-0.3696241705089807,2.5090046819001435,0.1507800966501236,0.3277579247951507,0.4145002961158752,jumping
1783090619160050200,0.51905029296875,0.3061339873731136,-0.3694971831284463,3.423450015348196,0.1103839948773384,0.3341850340366363,0.4895774722099304,jumping
1783090619170095000,0.52909521484375,0.8456368778988719,-0.1691375462606549,4.492945625254512,0.098675936460495,0.1818812489509582,0.5851873755455017,jumping
1783090619180139000,0.539138916015625,1.4957231266468762,0.2403365502081811,5.246414799326658,0.1294692903757095,-0.0715173557400703,0.7031186819076538,jumping
1783090619190184200,0.54918408203125,1.9743438245780764,0.5844988010719419,5.793675756633282,0.1907627433538437,-0.3796163499355316,0.8312463164329529,jumping
1783090619200228000,0.55922802734375,1.8682494483381509,0.5311328293263912,6.072040278071165,0.2780408263206482,-0.5924898386001587,0.9571524858474731,jumping
1783090619210273300,0.569273193359375,1.3347450675748287,0.1998985952273011,6.154103644251823,0.3646968901157379,-0.7057753801345825,1.057187795639038,jumping
1783090619220317200,0.579317138671875,0.7935109693422913,-0.211120538726449,6.630664340913295,0.3968160152435303,-0.80399090051651,1.1399840116500854,jumping
1783090619230362000,0.589362060546875,0.4427537041276693,-0.4788055529788136,7.336227269950508,0.3636045455932617,-0.9166309237480164,1.199252367019653,jumping
1783090619240406000,0.599406005859375,0.2279537462361156,-0.6650003247633576,7.612126862579584,0.3369619250297546,-1.0184367895126345,1.216413140296936,jumping
1783090619250451200,0.609451171875,0.0986924294203519,-0.7139974337749183,6.995322413447499,0.3415204584598541,-0.9990268349647522,1.2380717992782593,jumping
1783090619260495000,0.6194951171875,0.2733152752242982,-0.4426970055043697,5.4093245571136475,0.3566839396953583,-0.8581147193908691,1.306349277496338,jumping
1783090619270540300,0.629540283203125,0.7211936288893223,-0.0178930918261408,3.6214328400820497,0.3463791012763977,-0.5951738953590393,1.4114961624145508,jumping
1783090619280584200,0.639584228515625,0.8751227923631668,0.2674973827257752,1.8835224207937715,0.2845820188522339,-0.1899133026599884,1.4899821281433103,jumping
1783090619290629000,0.649629150390625,0.5914714165635406,0.3926870661884546,0.3812696001172065,0.2002588659524917,0.259111613035202,1.5044039487838743,jumping
1783090619300673300,0.65967333984375,0.1604232016682624,0.5447603726625442,-0.7480676072895527,0.166266456246376,0.6954880952835083,1.4939889907836914,jumping
1783090619310718000,0.669718017578125,-0.3129799077451229,0.9288901845164595,-2.0012007057130337,0.199197769165039,1.0460456609725952,1.4441245794296265,jumping
1783090619320762000,0.67976220703125,-0.9257153538726268,0.9578680033281444,-3.218489752817154,0.275959849357605,1.3441609144210815,1.2588626146316528,jumping
1783090619330807300,0.689807373046875,-1.9422196705646813,0.0761200937367975,-4.5627936529844995,0.3828607201576233,1.4900507926940918,0.924477517604828,jumping
1783090619340851000,0.699850830078125,-2.4556053924068806,-1.1086951091334225,-5.5236991243124,0.446573793888092,1.4113959074020386,0.5651826858520508,jumping
1783090619350896000,0.709896240234375,-1.960251732470095,-1.486262347601354,-5.906545179966092,0.4327682256698608,1.1134650707244873,0.246637150645256,jumping
1783090619360940300,0.719940185546875,-1.12474542263709,-1.415121649712324,-5.9438014361709355,0.4204953610897064,0.7349422574043274,-0.1458952873945236,jumping
1783090619370985200,0.729985107421875,-1.2825266584292054,-1.9864274994730948,-6.3908946308076375,0.4447820782661438,0.3010944128036499,-0.6171911358833313,jumping
1783090619381029000,0.740029052734375,-2.0844585423752666,-2.8753827100947498,-7.002223278877139,0.4229258894920349,-0.2210370302200317,-0.9514980912208556,jumping
1783090619391074300,0.75007421875,-2.526273796609044,-2.8171611150115727,-7.975670251870155,0.3115788698196411,-0.7286296486854553,-1.0491361618041992,jumping
1783090619401118000,0.760117919921875,-3.100585842448473,-1.7799165003687143,-9.893567235952617,0.1981554627418518,-1.1921494007110596,-1.0034786462783811,jumping
1783090619411163100,0.7701630859375,-2.953578587192297,-0.8052436388425529,-11.447805095410349,0.1436557322740554,-1.508755803108215,-0.9306500554084778,jumping
1783090619421207300,0.780207275390625,-2.463510466443002,-0.2116639979533851,-12.831104204404353,0.1682204604148864,-1.682535171508789,-0.8671262860298157,jumping
1783090619431252200,0.790252197265625,-2.2120779372029005,0.1436167360350489,-13.020080131340029,0.226159930229187,-1.7415074110031128,-0.8144004344940186,jumping
1783090619441296100,0.800296142578125,-2.1352458958044647,0.2375473578810691,-12.44163960739374,0.1937298774719238,-1.529188632965088,-0.7317242622375488,jumping
1783090619451341000,0.810341064453125,-2.9452205086916683,0.4840357087172567,-12.03878010675907,-0.0225957706570625,-1.023550271987915,-0.5912379622459412,jumping
1783090619461385200,0.82038525390625,-3.854690976336598,0.8583084356844425,-11.731844155353308,-0.3341639041900635,-0.2530875205993652,-0.3948897421360016,jumping
1783090619471430100,0.83043017578125,-4.54070194042474,0.9494871284738182,-11.713998702061176,-0.6548777222633362,0.6811323165893555,-0.2134344726800918,jumping
1783090619481474000,0.84047412109375,-4.057370142193139,0.87913582739681,-12.060260117161274,-0.829306423664093,1.461972951889038,0.0216250028461217,jumping
1783090619491519200,0.850519287109375,-2.69973622033149,1.6645578905686735,-12.568691285336016,-0.8522796630859375,1.9887566566467283,0.2969484627246856,jumping
1783090619501563100,0.860563232421875,-1.687610557115078,2.4589684390991926,-12.934756302058696,-0.668117105960846,2.168070077896118,0.6295546889305115,jumping
1783090619511608000,0.870608154296875,-0.926830329377204,2.457986442324519,-12.19952713355422,-0.2715135812759399,1.858900785446167,0.9594865441322328,jumping
1783090619521652200,0.88065234375,-0.19963482972458,1.7903927400670945,-10.452144537043573,0.2062577456235885,1.5152965784072876,1.137675642967224,jumping
1783090619531697200,0.890697265625,0.2568291275866329,0.3329312472753226,-9.389155240291355,0.4501497745513916,1.3095420598983765,1.2165286540985107,jumping
1783090619541741000,0.900740966796875,0.929437881527096,1.7744037282966076,-6.348851724848151,0.4308655858039856,0.7649922370910645,1.3763142824172974,jumping
1783090619551786200,0.9107861328125,1.740696689005941,2.7808167129546404,-1.5628595573306083,0.299416720867157,0.0028946143575012,1.4511568546295166,jumping
1783090619561830100,0.920830078125,2.3628575506046414,1.229687633167207,1.268211425089836,0.3242950737476349,-0.5480736494064331,1.3864418268203735,jumping
1783090619571875000,0.930875,3.0759102508753537,1.584777959150076,3.72092957162261,0.4071361422538757,-0.9704781770706176,1.196756362915039,jumping
1783090619581919200,0.940919189453125,2.462785074777901,2.2392779326871035,6.158061441966891,0.2728466987609863,-1.2026832103729248,0.9786334037780762,jumping
1783090619591964200,0.950964111328125,1.1502777771700172,2.079380800719559,8.49523188586831,0.0939957424998283,-1.473723530769348,0.7868399620056152,jumping
1783090619602008000,0.961008056640625,-0.8555782800681888,1.8299406143404544,12.375607338559629,-0.1783799827098846,-1.6787346601486206,0.6092458367347717,jumping
1783090619612053200,0.97105322265625,-1.5504755843147635,1.4521883746944366,14.23293850252032,-0.4485747218132019,-1.9803829193115232,0.4042676091194153,jumping
1783090619622097200,0.98109716796875,-0.7144340716265142,0.8517543378658592,15.587426527571678,-0.6036203503608704,-2.271118402481079,0.1893051862716674,jumping
1783090619632142000,0.99114208984375,1.0221088587008416,0.6158915720708668,15.55329044921398,-0.6472538113594055,-2.507535457611084,-0.0646866112947464,jumping
1783090619642186200,1.001186279296875,2.7306302480280396,0.0502510545954108,14.582210205352306,-0.5764760375022888,-2.6162548065185547,-0.3039813041687011,jumping
1783090619652231200,1.011231201171875,3.580861760240793,-0.5193797015599906,12.999855673956873,-0.4389168620109558,-2.5257134437561035,-0.5115115642547607,jumping
1783090619662275000,1.021275146484375,3.661279112780094,-1.1359382131069895,11.474510731506347,-0.2857784926891327,-2.2545411586761475,-0.6793527007102966,jumping
1783090619672320000,1.031320068359375,3.2990959059268232,-1.5564689795106648,10.265956779521703,-0.1392266005277633,-1.8547321557998655,-0.7770307660102844,jumping
1783090619682364200,1.0413642578125,2.762108505353331,-1.5573518998250364,9.450438268771768,0.0008750760462135,-1.4049172401428225,-0.7902042865753174,jumping
1783090619692409000,1.0514091796875,2.5311031164616344,-1.6292007459834217,8.949413577461241,0.099950261414051,-0.9512932896614076,-0.7238873243331909,jumping
1783090619702453200,1.061453369140625,2.763580623732507,-1.630268521345407,8.413911447009443,0.1432165056467056,-0.4944458305835724,-0.6268014907836914,jumping
1783090619712498200,1.071498291015625,3.002902005548775,-1.6362296217069028,7.737586887416243,0.122633472084999,-0.0106796761974692,-0.5480478405952454,jumping
1783090619722542000,1.0815419921875,3.134468822827935,-1.7438991383090614,7.040272146764397,0.0341562442481517,0.4309492707252502,-0.4687715470790863,jumping
1783090619732587000,1.0915869140625,3.286262143316865,-1.8067575994126497,6.704283703875541,-0.1131993904709816,0.7800145745277405,-0.4004769027233124,jumping
1783090619742631200,1.101631103515625,3.207836841377616,-2.059391321136057,6.690830932584404,-0.2815408706665039,1.0286402702331543,-0.3442195057868957,jumping
1783090619752676400,1.11167626953125,3.0852611398056147,-2.3677757177844643,6.943019394758343,-0.4351213872432709,1.166812777519226,-0.2825734615325928,jumping
1783090619762720000,1.121719970703125,3.0068866912707684,-2.4538091566398736,7.4057380285501475,-0.5285772681236267,1.190976619720459,-0.2171757072210312,jumping
1783090619772765200,1.13176513671875,3.0230034210741517,-2.518916419583559,8.0595479739964,-0.516150951385498,1.0897629261016846,-0.1367439925670623,jumping
1783090619782809300,1.141809326171875,3.178665691950917,-2.53295780441761,8.763580040204525,-0.4037475287914276,0.9012985229492188,-0.0221458561718463,jumping
1783090619792854000,1.15185400390625,3.180439423625171,-2.2086209286168215,9.082557727059722,-0.2394163906574249,0.6566331386566162,0.1332767605781555,jumping
1783090619802898000,1.16189794921875,3.1240476743176577,-1.739166556829214,9.13726196167171,-0.0508125238120555,0.3077634572982788,0.3225961625576019,jumping
1783090619812942800,1.17194287109375,3.109127168561518,-1.304841219959408,9.016023353922366,0.1356420367956161,-0.1456277072429657,0.5249341130256653,jumping
1783090619822986800,1.18198681640625,3.4075995352655646,-1.083239034707099,8.771599096009135,0.3106607794761657,-0.6689390540122986,0.6831668615341187,jumping
1783090619833032000,1.192031982421875,3.2441657536044715,-1.1661484963230788,8.610775496846436,0.4857726693153381,-1.110142469406128,0.8003278374671936,jumping
1783090619843075800,1.202075927734375,2.0214897527649995,-0.8358280160680412,8.18392721785903,0.5966756939888,-1.4881633520126345,0.9530680179595948,jumping
1783090619853119700,1.21211962890625,1.2467717466980217,0.0338484935879707,6.946404361021519,0.6090130805969238,-1.7786396741867063,1.1156460046768188,jumping
1783090619863165000,1.2221650390625,1.2420499788731336,1.0047494353599846,5.1250323991924525,0.5369017720222473,-1.8931341171264648,1.3702574968338013,jumping
1783090619873208800,1.232208740234375,2.4105849319413304,3.6676430948540566,2.8513392789453267,0.3741445243358612,-1.8099870681762695,1.716129183769226,jumping
1783090619883253800,1.242253662109375,4.316383774212002,6.34885289389193,-0.3625409342497587,0.1970571875572204,-1.049859642982483,1.9487890005111697,jumping
1783090619893298000,1.2522978515625,-0.9092340285405516,6.809525116547942,-4.977433023262024,-0.0312337670475244,0.4342070817947387,1.938209891319275,jumping
1783090619903342800,1.2623427734375,-3.817856452675163,4.690125024650991,-8.481232586610316,-0.1457439661026001,2.017343521118164,1.9456108808517456,jumping
1783090619913386800,1.27238671875,-5.337797782516479,4.544454863217473,-9.858111307168006,-0.2193926274776458,3.5354466438293457,1.7731953859329224,jumping
1783090619923432000,1.282431884765625,-6.781655697369575,3.768542386668921,-11.369846241939069,-0.3338642120361328,4.9798994064331055,1.1990598440170288,jumping
1783090619933475800,1.292475830078125,-5.835853687149286,-1.3886585902005433,-12.333047130727769,-0.4105975925922394,5.658855438232422,0.1865547746419906,jumping
1783090619943520800,1.302520751953125,-2.2931153213366864,-5.3540965908885,-11.071136851608752,-0.37184739112854,5.356606960296631,-0.632831335067749,jumping
1783090619953565000,1.31256494140625,1.868790423347056,-3.6573616470754144,-10.262640202319622,-0.3289462625980377,4.300475597381592,-0.94044828414917,jumping
1783090619963609900,1.32260986328125,1.7538013775117691,-0.5543729812689125,-10.796512101221085,-0.2693642079830169,3.211923599243164,-1.0062458515167236,jumping
1783090619973653800,1.33265380859375,-1.6824388535656034,-0.1670414507642388,-12.899731750428677,-0.0334654040634632,1.8752593994140625,-1.043590068817139,jumping
1783090619983699000,1.342698974609375,-1.8938839480713008,-1.6601966266192494,-10.26210361122489,0.4966435432434082,0.0802557319402694,-1.2285677194595337,jumping
1783090619993742600,1.35274267578125,-2.079909646899253,-2.2256801999673246,-6.734093151205777,0.9994901418685912,-1.4341561794281006,-1.6197782754898071,jumping
1783090620003787800,1.362787841796875,-4.121011716498434,-3.123517512963712,-6.536807076564431,1.219299554824829,-2.648019790649414,-1.8493084907531736,jumping
1783090620013832000,1.37283203125,-4.361696495622396,-3.1368364287421104,-5.027248901310563,1.1901476383209229,-3.3716588020324707,-1.8547682762145996,jumping
1783090620023876900,1.382876953125,-4.615098425239324,-2.7462103867366907,-5.861847960105538,0.9213011264801024,-3.5106472969055176,-1.7954837083816528,jumping
1783090620033920800,1.392920654296875,-4.360988931874931,-2.694631882929802,-8.75769624286294,0.4132868647575378,-3.237602710723877,-1.5992587804794312,jumping
1783090620043965700,1.402965576171875,-3.3947289477765556,-1.5223817087307572,-12.206458394122125,-0.1471798568964004,-2.482837200164795,-1.1827844381332395,jumping
1783090620054009900,1.413009765625,-2.1140100694216786,0.2184485435269773,-16.455461407500504,-0.5922057628631592,-1.5601717233657837,-0.6496638059616089,jumping
1783090620064054800,1.4230546875,-0.5445506754346191,0.7442594471782445,-19.56854198986292,-0.8492265939712524,-0.7285338640213013,-0.1244707331061363,jumping
1783090620074099000,1.433098876953125,0.0312554083548486,-0.1789718347936868,-20.73799025838375,-0.966564118862152,-0.1194849237799644,0.3000981509685516,jumping
1783090620084143900,1.443143798828125,-0.8542910167366266,-0.9941234119273722,-19.63098061811924,-0.7339916229248047,0.0633208304643631,0.6108446717262268,jumping
1783090620094187800,1.453187744140625,-2.0326763326898214,-0.4958363288871943,-15.957189229768511,-0.1515889167785644,0.0991310253739357,0.7345104217529297,jumping
1783090620104232700,1.463232666015625,-3.1482091788887976,-0.383662486603111,-12.435593312966825,0.3444506525993347,0.1083909198641777,0.6194760203361511,jumping
1783090620114276900,1.47327685546875,-3.322420082890987,-0.2741093482114374,-9.16631796028614,0.6088815331459045,-0.0700395405292511,0.4691566228866577,jumping
1783090620124322000,1.483322021484375,-2.0858330455988643,0.7893366062670946,-5.284991490480303,0.5982063412666321,-0.5366915464401245,0.3941690623760223,jumping
1783090620134365700,1.49336572265625,-0.2195626422487199,1.9729139379054303,-2.299409160783887,0.4229818284511566,-1.123430609703064,0.4141704738140106,jumping
1783090620144411000,1.503410888671875,0.9800207984253764,2.6296441547125577,-0.4535404710799455,0.2392354011535644,-1.691746950149536,0.4985904097557068,jumping
1783090620154454800,1.513454833984375,2.053520967797935,2.4697075675174593,1.1942314121216535,0.1438055485486984,-2.141256332397461,0.5989242196083069,jumping
1783090620164499700,1.523499755859375,2.798286903193593,2.354194790069014,2.4925685108840465,0.1385205388069152,-2.387124300003052,0.6811822652816772,jumping
1783090620174544000,1.5335439453125,2.871755167247355,2.3748607076093555,3.3913907432645556,0.1715991199016571,-2.4019620418548584,0.7103180885314941,jumping
1783090620184588800,1.5435888671875,2.946974658882618,2.4873329483181235,4.887703652498126,0.1266096085309982,-2.2970268726348877,0.7257151007652283,jumping
1783090620194632700,1.5536328125,3.034565556313097,2.8138661651194092,7.078679911091923,-0.038123682141304,-2.120032787322998,0.758087158203125,jumping
1783090620204678000,1.563677978515625,3.266901609286666,2.9178239677220583,9.21212051104009,-0.2559099197387695,-1.9311935901641848,0.8167059421539307,jumping
1783090620214721800,1.5737216796875,3.556089430294931,2.8035212967157364,10.96768816757202,-0.3609878718852997,-1.7500944137573242,0.8562754988670349,jumping
1783090620224766700,1.5837666015625,3.8844086537301536,2.351952125708759,11.603407160532472,-0.2551974356174469,-1.5342018604278564,0.8419169783592224,jumping
1783090620234811000,1.593810791015625,4.329252023613453,1.813339023629576,11.78342236689925,-0.0692587047815322,-1.3161766529083252,0.7712239027023315,jumping
1783090620244855800,1.603855712890625,5.16815667064786,0.9253506122134624,12.107510528635975,0.0502671301364898,-1.164444088935852,0.6809680461883545,jumping
1783090620254899700,1.613899658203125,5.9788715805083505,-0.0509638790398836,12.128100896722078,0.0794923901557922,-1.0194014310836792,0.5668447017669678,jumping
1783090620264945000,1.62394482421875,6.258520296537876,-0.7757664922066032,11.402743133890628,0.0364479459822177,-0.7713294625282288,0.4252070188522339,jumping
1783090620274988800,1.63398876953125,5.958169568741321,-1.3391554313629863,10.049743301570414,-0.053815372288227,-0.3702478110790252,0.3065216541290283,jumping
1783090620285034000,1.644033935546875,5.137362303933501,-1.6695134671494365,8.63781489494145,-0.1392144113779068,0.1578233242034912,0.2319256514310836,jumping
1783090620295078000,1.654077880859375,4.519112039907276,-1.881132603047788,7.498939459338784,-0.1616555303335189,0.7115504145622253,0.1904903203248977,jumping
1783090620305122800,1.664122802734375,3.9883907139912247,-1.8197341314941644,6.738783354848623,-0.0855994969606399,1.2556164264678955,0.1486167758703231,jumping
1783090620315166700,1.674166748046875,3.493479537124931,-1.614834805370122,6.311002178925276,0.0319593586027622,1.7148009538650513,0.0864015966653823,jumping
1783090620325211600,1.684211669921875,3.2294691197320815,-1.570468863290548,6.425522292074561,0.1322579085826873,2.0342838764190674,0.034158881753683,jumping
1783090620335255800,1.694255859375,3.231305102987587,-1.417286718791723,6.924445627191663,0.1833139061927795,2.1892573833465576,-0.0077771153301,jumping
1783090620345301000,1.704301025390625,2.9522657510280608,-1.083912403924018,7.554817413905263,0.17774198949337,2.2096335887908936,-0.0387137867510318,jumping
1783090620355345000,1.714344970703125,2.6612448693737387,-0.9908744931340216,8.369709317189454,0.1056433022022247,2.1196625232696533,-0.0624425485730171,jumping
1783090620365389800,1.724389892578125,2.641825883154571,-1.093151649173349,9.46615664690733,-0.0185874812304973,1.871171951293945,-0.1086093932390213,jumping
1783090620375434000,1.73443408203125,2.87412335768342,-1.1607241331867872,10.534286229157448,-0.1612301170825958,1.5218757390975952,-0.1438296884298324,jumping
1783090620385478700,1.744478759765625,3.043322278742492,-1.0527040495812892,10.97354741499424,-0.282257080078125,1.113686203956604,-0.1400271654129028,jumping
1783090620395522800,1.754522705078125,3.2027763431176544,-0.9195404646299778,10.775041443169115,-0.3276903629302978,0.6731597185134888,-0.1088521853089332,jumping
1783090620405568000,1.764568115234375,3.2586808934301135,-0.7572713428340851,9.997061512696742,-0.1839096844196319,0.1935205906629562,-0.0858080610632896,jumping
1783090620415611600,1.774611572265625,3.281446267467737,-0.7005306339584291,8.798916726523638,0.1357564628124237,-0.2043356895446777,-0.1022456213831901,jumping
1783090620425656800,1.78465673828125,2.81540433447212,-0.7229815352194011,7.472610839861631,0.4946399629116058,-0.3506830930709839,-0.1101914495229721,jumping
1783090620435701000,1.794700927734375,1.3098548103377223,-0.1121232811406254,6.523256690117717,0.7434191703796387,-0.2466168701648712,0.0549325235188007,jumping
1783090620445745700,1.80474560546875,0.2715831907346844,1.2389192796319723,5.84220510200262,0.8061607480049133,-0.116082951426506,0.4121629595756531,jumping
1783090620455789800,1.814789794921875,0.6821981278017163,2.3661570305414497,5.534045746281743,0.6493631601333618,-0.0488703548908233,0.7317018508911133,jumping
1783090620465834800,1.824834716796875,1.8152876734793184,2.885763526594639,5.2051487229585645,0.3047970533370971,-0.0108751021325588,0.7248992919921875,jumping
1783090620475878700,1.834878662109375,5.277804793846607,2.174156641218066,3.804086578258872,-0.0992438793182373,0.1407101601362228,0.7193622589111328,jumping
1783090620485923800,1.844923828125,4.7655292252033945,2.3591453982137143,1.0515654009401798,-0.3810199201107025,0.6110146641731262,0.6059532761573792,jumping
1783090620495967700,1.8549677734375,-0.921762086202204,0.0511241841681301,-2.5978455793917177,-0.3706088066101074,1.1982097625732422,0.1380219757556915,jumping
1783090620506013000,1.865012939453125,-2.948287495046854,-4.04148722114563,-4.759198268616199,-0.0119211617857217,1.6943527460098269,-0.5712341666221619,jumping
1783090620516056800,1.875056884765625,-3.753317052747309,-4.132095128309726,-7.006862044593691,0.4013311266899109,2.49562406539917,-1.3919200897216797,jumping
1783090620526101800,1.885101806640625,-6.5469210588216775,-2.468774962842464,-12.39389352135658,0.5683218240737915,3.4713845252990723,-1.9444648027420044,jumping
1783090620536146000,1.89514599609375,-5.964068563652038,-2.0591297475904224,-16.984857037770748,0.3667474091053009,4.472972393035889,-2.3319921493530273,jumping
1783090620546190800,1.90519091796875,-4.931819857600331,-2.167013491465151,-20.2254276894927,-0.0741266906261444,4.606955528259277,-2.4228274822235107,jumping
1783090620556234800,1.91523486328125,-2.5361881646409627,-0.7869966190122067,-17.131076357519625,-0.2857715785503387,3.613757371902466,-2.079880952835083,jumping
1783090620566280000,1.925280029296875,1.143147633029148,0.4720061020970344,-11.12172137594223,-0.172848954796791,2.432455778121948,-1.4620699882507324,jumping
1783090620576323800,1.93532373046875,1.5667922206044196,0.6297391878984868,-8.807554791009425,0.2030564993619918,1.5203526020050049,-0.9353253841400146,jumping
1783090620586368800,1.94536865234375,-0.4074951976113021,-0.7673346178174019,-7.894556149238348,0.7060943245887756,0.5547822117805481,-0.6687805652618408,jumping
1783090620596413000,1.955412841796875,-2.280475327733159,-2.0365162031136452,-6.949800433200597,0.9784033298492432,-0.7346766591072083,-0.3861906826496124,jumping
1783090620606457600,1.96545751953125,-2.865932452443242,-1.5320283657371996,-7.996496182277798,0.8630915284156799,-1.8729395866394043,-0.2128613144159317,jumping
1783090620616501800,1.975501708984375,-2.294441601504386,-0.5262089630581438,-10.877803898507356,0.6519126892089844,-2.6236894130706787,-0.1407820582389831,jumping
1783090620626547000,1.985546875,-2.670692788937688,0.4275320234678685,-13.077138820123672,0.4907638430595398,-3.0400261878967285,-0.0188626255840063,jumping
1783090620636590600,1.995590576171875,-2.577407771518826,1.5794778069153428,-13.632696481132507,0.3819204568862915,-3.1790904998779297,0.1584130972623825,jumping
1783090620646635800,2.0056357421875,-2.0432301676690576,2.377164600637555,-13.558939171004294,0.2354817688465118,-2.8807621002197266,0.235818937420845,jumping
1783090620656680000,2.015679931640625,-2.029273538509011,2.126364670212567,-14.347703530341386,0.0151557847857475,-2.175856113433838,0.2526450455188751,jumping
1783090620666724900,2.025724853515625,-2.339741463433206,2.0584159002326428,-14.489589204800128,-0.2656294703483581,-1.3550682067871094,0.2439853698015213,jumping
1783090620676768800,2.035768798828125,-2.569788528686762,2.080018221840262,-13.299065415024756,-0.5003359913825989,-0.6672631502151489,0.1720296889543533,jumping
1783090620686814000,2.04581396484375,-3.045310237689316,1.6746477612979709,-12.222753695362806,-0.595531702041626,-0.2152580469846725,0.0749209374189376,jumping
1783090620696857900,2.05585791015625,-3.2152503325045108,1.6904913732483982,-11.376709697967769,-0.5267361402511597,0.0232703611254692,0.0269012190401554,jumping
1783090620706902800,2.06590283203125,-2.760094535182416,1.893890085551143,-10.575001685905455,-0.3882184326648712,0.1178360134363174,-0.0178824998438358,jumping
1783090620716947000,2.075947021484375,-1.913410924709588,1.6321018742524087,-9.871675722140074,-0.300471544265747,0.1278324574232101,-0.101819209754467,jumping
1783090620726992000,2.085991943359375,-1.162521976388991,1.176869066171348,-9.382568847638368,-0.3106523752212524,0.1506687551736831,-0.2086743116378784,jumping
1783090620737035800,2.096035888671875,-0.4822530630841851,1.018146969332546,-8.651717163565754,-0.4070558547973633,0.2505463659763336,-0.2836731970310211,jumping
1783090620747080000,2.106079833984375,0.169411394765973,1.1172510482937097,-7.034848952671885,-0.5239518284797668,0.3621037602424621,-0.3267962336540222,jumping
1783090620757124900,2.116124755859375,0.684691259791702,1.2275621654458344,-4.119510956546664,-0.6118031144142151,0.3550754189491272,-0.3352496325969696,jumping
1783090620767168800,2.126168701171875,1.004497652556002,1.2918413070023058,-0.1231675299853086,-0.6697016954421997,0.1913528740406036,-0.3060114681720733,jumping
1783090620777213700,2.136213623046875,1.1894753036357462,1.210319061961025,3.7830648330181833,-0.7127639651298523,-0.0715594515204429,-0.2548420131206512,jumping
1783090620787257900,2.1462578125,1.3715237693957985,1.030471028854698,6.94766809734702,-0.7408850193023682,-0.3533423542976379,-0.2079413384199142,jumping
1783090620797302800,2.156302734375,2.006949040106684,0.7614509666062891,9.069172760307788,-0.6580311059951782,-0.6385599970817566,-0.1425016075372696,jumping
1783090620807347000,2.166346923828125,2.274568003385514,0.673144906643778,10.293400082242488,-0.4868428111076355,-0.8743508458137512,-0.0564476922154426,jumping
1783090620817392000,2.17639208984375,2.084258197497576,0.2968880201220512,11.259030244004723,-0.3118334412574768,-1.1509408950805664,0.028340695425868,jumping
1783090620827436300,2.186436279296875,1.9515148837849496,-0.405354386190325,12.18375088775158,-0.1657469719648361,-1.447432518005371,0.1276739686727523,jumping
1783090620837481200,2.196481201171875,1.9503008318200703,-1.0010282228797671,12.413234181642531,-0.0151183223351836,-1.6990764141082764,0.1911219209432602,jumping
1783090620847525000,2.206525146484375,2.6876760724425313,-1.601548622817546,12.11082593679428,0.1207206845283508,-1.8908637762069704,0.1747220009565353,jumping
1783090620857570000,2.216570068359375,3.699913087078929,-1.848875762565434,11.677724442631003,0.1741130650043487,-1.9351736307144165,0.1186390295624733,jumping
1783090620867614200,2.2266142578125,4.240039370200038,-1.6904615626320243,11.089760888057947,0.106686845421791,-1.7892506122589111,0.1057377085089683,jumping
1783090620877659100,2.2366591796875,4.669622627109289,-1.42282725565359,10.420302122581004,-0.0200362168252468,-1.479485273361206,0.1625312119722366,jumping
1783090620887703300,2.246703369140625,4.75864677221328,-1.3266945937186478,9.663625676900148,-0.1253967881202697,-1.080036759376526,0.23127081990242,jumping
1783090620897748200,2.256748291015625,4.3919624545484774,-1.440373141477257,9.011434857088329,-0.1423211693763733,-0.5979084968566895,0.268848568201065,jumping
1783090620907792100,2.266792236328125,4.012824605762958,-1.7043419116854666,8.403630876013636,-0.0705979093909263,-0.0675528571009635,0.2724657356739044,jumping
1783090620917837000,2.276837158203125,3.5909959085032344,-2.006342598646134,7.97125944969058,0.059642381966114,0.4557244777679443,0.2464487850666046,jumping
1783090620927881200,2.286881103515625,3.1475942618608475,-2.24121956827417,7.636790179193019,0.2060499340295791,1.0045074224472046,0.2248249948024749,jumping
1783090620937926100,2.296926025390625,2.848129376988113,-2.1331829719252884,7.149652558937668,0.3283702433109283,1.480213284492493,0.2299585044384002,jumping
1783090620947970000,2.306969970703125,2.899379379492998,-1.9799534811533983,7.296453477966785,0.3859262466430664,1.776289463043213,0.2271289974451065,jumping
1783090620958015200,2.31701513671875,3.1611598458766936,-1.967112412019819,7.971530083325505,0.3767449855804443,1.8731313943862915,0.2045230269432068,jumping
1783090620968059100,2.32705908203125,3.196379627817869,-1.8973218135654928,8.613483586761355,0.2806116044521332,1.770827293395996,0.1881168931722641,jumping
1783090620978104000,2.33710400390625,2.767694781053066,-1.7442559889227152,9.159196730104089,0.1138058453798294,1.4458202123641968,0.1761864721775055,jumping
1783090620988148200,2.347148193359375,2.187929145982862,-1.999172122494876,9.350120868498086,-0.0472595505416393,0.9873127341270448,0.1844877302646637,jumping
1783090620998193200,2.357193115234375,1.7811024952828882,-2.394411503514647,8.992659429469704,-0.1785611063241958,0.4660761654376983,0.1985976845026016,jumping
1783090621008237000,2.367237060546875,1.9572411524772644,-2.915928947755694,8.875921055749059,-0.1897327303886413,-0.1423931568861007,0.1792323291301727,jumping
1783090621018282200,2.3772822265625,2.3272464312583208,-3.046128276073933,8.988498218137025,-0.0928011238574981,-0.7372541427612305,0.1107145249843597,jumping
1783090621028326400,2.387326416015625,2.3822817975208164,-3.1570719920411703,8.909026622015237,0.0523346662521362,-1.2607414722442627,0.0179745070636272,jumping
1783090621038371000,2.39737109375,2.1521897240817545,-3.197808783838153,8.839480792102217,0.1866245716810226,-1.652466893196106,-0.0775514841079711,jumping
1783090621048415200,2.407415283203125,1.8873568843901156,-3.072092446152866,8.669249897646903,0.3896420001983642,-1.8379321098327637,-0.1266920566558838,jumping
1783090621058460200,2.417460205078125,2.0127420904248954,-2.093545227411389,7.779856587868928,0.653048038482666,-1.8209893703460691,0.0133787719532847,jumping
1783090621068504000,2.427504150390625,2.025516524063051,0.3604721651516854,6.186174606773257,0.861931562423706,-1.6325353384017944,0.4271221458911896,jumping
1783090621078549200,2.43754931640625,2.6164006422579287,3.1190070498019455,4.057043102195859,0.9595773816108704,-1.2115894556045532,0.9787869453430176,jumping
1783090621088593200,2.44759326171875,2.8706700023591516,5.2808524909794325,1.214558745357394,0.8265010118484497,-0.5196995735168457,1.605156421661377,jumping
1783090621098638000,2.45763818359375,2.4765087719649075,6.909001974344253,-3.0352532463163135,0.4290987551212311,0.8332392573356628,2.1500096321105957,jumping
1783090621108682200,2.46768212890625,0.6104410515800118,5.58369737367928,-9.01420665988922,-0.0863925516605377,2.6223254203796387,2.306094169616699,jumping
1783090621118727200,2.47772705078125,-1.7286548074260353,3.179175395038724,-13.762144698822498,-0.3988654911518097,4.1472673416137695,2.1094703674316406,jumping
1783090621128771000,2.48777099609375,-3.31778950048089,1.445688491281122,-14.897918661278483,-0.3204933702945709,4.895613193511963,1.5748796463012695,jumping
1783090621138816000,2.49781591796875,-3.5835353633642195,-0.7150254616484045,-12.038230656182764,-0.0513236857950687,4.8769307136535645,1.0127111673355105,jumping
1783090621148860200,2.507860107421875,-3.2758559001147747,-0.641350422976166,-8.599345755815506,0.1291548311710357,4.245659351348877,0.6307913661003113,jumping
1783090621158905300,2.5179052734375,-1.816079116117954,-0.3586345744609832,-6.205017254409194,0.1873246729373932,3.3466827869415283,0.3467521667480469,jumping
1783090621168949200,2.52794921875,-1.5276982275784017,-0.6840516467139125,-5.468825962874293,0.0914018154144287,2.404088973999023,0.2506843209266662,jumping
1783090621178994200,2.537994140625,-1.841548196156323,-0.334683643900603,-6.108336164811253,0.0043609226122498,1.4357731342315674,0.3891242444515228,jumping
1783090621189038000,2.5480380859375,-1.5063815910443663,0.6005369126811623,-6.8214306583970785,0.062403243035078,0.6507035493850708,0.4721260070800781,jumping
1783090621199083000,2.5580830078125,-1.530243235886097,0.8190848249293863,-8.409659050261974,0.2267053723335266,0.0322323031723499,0.4041432440280914,jumping
1783090621209127200,2.568127197265625,-1.5641396602690218,0.2706801044151187,-8.539026603931188,0.3167970776557922,-0.6353266835212708,0.2662188112735748,jumping
1783090621219172400,2.57817236328125,-1.4436848963737487,-0.8432343468017875,-7.128064411985874,0.2933849692344665,-1.2017229795455933,0.0220210328698158,jumping
1783090621229216000,2.588216064453125,-1.4797642177537085,-2.041484493045509,-6.202658124062419,0.290714830160141,-1.6012392044067385,-0.2193749845027923,jumping
1783090621239261200,2.59826123046875,-1.7009174901947377,-1.6652981875419617,-5.406676088431477,0.4198222160339355,-1.8881181478500368,-0.3999429047107696,jumping
1783090621249305300,2.608305419921875,-2.436941316208243,-1.176388735308498,-4.925549691289663,0.4745643436908722,-2.062681198120117,-0.5605851411819458,jumping
1783090621259350000,2.61835009765625,-2.49014654443413,-0.8588061560735106,-5.7109594795018435,0.4258455336093902,-2.1868600845336914,-0.6238860487937927,jumping
1783090621269394200,2.628394287109375,-1.9322480193875728,-0.4036896678484976,-6.701986532849073,0.2588969767093658,-2.2186977863311768,-0.4940448999404907,jumping
1783090621279439000,2.638439208984375,-1.8164521872140469,0.1758266686357557,-8.684272110211849,0.0956412181258201,-2.0408031940460205,-0.2885761559009552,jumping
1783090621289483000,2.64848291015625,-1.8849964388690887,0.12126257314682,-11.166858156263828,-0.0279191583395004,-1.5326021909713743,-0.1585754007101059,jumping
1783090621299528200,2.658528076171875,-2.336453235542774,-0.8955559240609406,-13.80288821262121,-0.196345180273056,-0.8578288555145264,-0.1665707379579544,jumping
1783090621309572000,2.668572021484375,-2.973944498872757,-1.9110339664451776,-15.633963822340965,-0.3882459998130798,-0.2454168945550918,-0.2396572083234787,jumping
1783090621319617300,2.6786171875,-3.248472803148627,-2.2318831462606785,-16.299584617090225,-0.5013067722320557,0.1807495951652526,-0.2678691446781158,jumping
1783090621329661200,2.6886611328125,-3.223490922105312,-0.9616190264247356,-16.140028845906258,-0.4855591654777527,0.3730713129043579,-0.2320792824029922,jumping
1783090621339706000,2.6987060546875,-3.101889034001529,0.545195256948471,-15.282684871339796,-0.3016290068626404,0.3673484623432159,-0.2323306798934936,jumping
1783090621349750000,2.70875,-2.9121047132924196,1.0341136231407522,-14.183620052599906,-0.0873378738760948,0.2326300889253616,-0.2627648413181305,jumping
1783090621359795200,2.718795166015625,-2.424995296218246,1.5911737976670264,-12.481631426042318,0.0019445961806923,-0.0067263008095324,-0.1735803633928299,jumping
1783090621369839000,2.728839111328125,-1.6146993424221872,2.3812134376369416,-10.068659598964452,-0.0628852695226669,-0.279283344745636,0.0307282004505395,jumping
1783090621379884300,2.73888427734375,-0.3973207173384726,2.8066631018728017,-7.5703218570292,-0.1863052099943161,-0.5996999740600586,0.2501985132694244,jumping
1783090621389928200,2.74892822265625,0.6176249717347323,2.4652052876621484,-4.956422383937239,-0.3173488080501556,-1.05561101436615,0.3841598629951477,jumping
1783090621399973000,2.75897314453125,1.0099209927789867,1.53616853428185,-2.059236715096235,-0.4479055106639862,-1.4995917081832886,0.4059314727783203,jumping
1783090621410017300,2.769017333984375,0.7667958347655832,0.6218669932186603,0.6144786365330219,-0.5617145895957947,-1.8553882837295532,0.3694509267807007,jumping
1783090621420062000,2.77906201171875,0.6765595373928547,-0.0225771579891443,3.0286890654951333,-0.658668577671051,-2.0359811782836914,0.2706082165241241,jumping
1783090621430106000,2.789106201171875,0.8638517490252852,-0.7473484992347658,5.2357899449378245,-0.7613692879676819,-2.0367164611816406,0.0891621485352516,jumping
1783090621440151300,2.7991513671875,1.383179282006621,-1.2735064627580344,7.277706107398867,-0.8947832584381104,-1.9251701831817627,-0.0932340249419212,jumping
1783090621450195200,2.8091953125,2.116526874548197,-1.1467490915872156,8.9655685934484,-0.9848316311836244,-1.7674317359924316,-0.2170692980289459,jumping
1783090621460240100,2.819240234375,2.7856559696793552,-0.5393512070953845,10.381975022274256,-0.8495582342147827,-1.6721736192703247,-0.2451645731925964,jumping
1783090621470284300,2.8292841796875,3.3266417922392484,-0.1333355805173516,11.296028141534329,-0.4969133734703064,-1.5830262899398804,-0.2132043987512588,jumping
1783090621480329000,2.839328857421875,3.736207512514293,-0.2601908591046929,12.09019699026346,-0.1126085668802261,-1.5400266647338867,-0.1640632301568985,jumping
1783090621490373000,2.849373046875,4.273747578534484,-0.570863366690278,12.81768358181715,0.1411212682723999,-1.4904544353485107,-0.1112108081579208,jumping
1783090621500418300,2.859418212890625,4.959280111455917,-0.6465586591437459,12.991583520174023,0.2221420854330063,-1.363886475563049,-0.0038609160110354,jumping
1783090621510462000,2.8694619140625,5.568763423919678,-0.6234124690949916,12.578782471239569,0.1859474182128906,-1.0532186031341553,0.1601435244083404,jumping
1783090621520507100,2.879507080078125,5.592139038810133,-0.6591413696020841,11.305801347529888,0.0746312886476516,-0.5931697487831116,0.299965888261795,jumping
1783090621530551300,2.88955126953125,5.24844309028387,-0.915609701052308,10.16498997542858,-0.0344691053032875,-0.1064499840140342,0.3511772751808166,jumping
1783090621540596200,2.89959619140625,4.6664331834182144,-1.45962831543684,9.386997769996524,-0.0682664886116981,0.4169948697090149,0.3459905385971069,jumping
1783090621550640000,2.90964013671875,3.887438522945344,-1.8146511291414495,8.335736320438981,-0.0416803285479545,0.9664292931556702,0.3179698288440704,jumping
1783090621560685000,2.91968505859375,3.1640505988821386,-1.9552257210016248,7.051492044436931,-0.0035063114482909,1.4336349964141846,0.2770535349845886,jumping
1783090621570729200,2.929729248046875,2.656393629950285,-2.0790692505523563,5.952792551878094,0.0336749665439128,1.7015035152435305,0.210234597325325,jumping
1783090621580773000,2.939773193359375,2.367056463599205,-2.2341700881540776,5.398305734971165,0.0724884048104286,1.7796729803085327,0.1255034655332565,jumping
1783090621590818000,2.949818115234375,2.1758196059942243,-2.5865529087439176,5.545301884311438,0.1193568408489227,1.645742416381836,0.0118465730920434,jumping
1783090621600862200,2.9598623046875,2.1104434629812836,-2.928828176817298,6.308837694367766,0.1382322609424591,1.3971585035324097,-0.1102108880877494,jumping
1783090621610907100,2.9699072265625,2.0856372307658195,-2.884633645781874,7.141254732948541,0.1139454916119575,1.1232870817184448,-0.1787293255329132,jumping
1783090621620951300,2.979951416015625,2.139253085619211,-2.62028683604151,7.987851103529334,0.0683897286653518,0.8324400782585144,-0.2054900974035263,jumping
1783090621630996200,2.989996337890625,2.321967614072561,-2.4361817300125956,9.038504065799712,0.0071908179670572,0.5214461088180542,-0.2305311560630798,jumping
1783090621641040100,3.0000400390625,2.736422275432944,-2.3963813422828912,9.832841256833076,-0.0334847047924995,0.2173298746347427,-0.2293396592140197,jumping
1783090621651085000,3.0100849609375,3.2569132992357015,-2.096809197643399,10.073352140694857,-0.0584850460290908,-0.0225647054612636,-0.1714646369218826,jumping
1783090621661129200,3.020129150390625,3.8247406592309474,-1.751984829609096,10.01109003804922,-0.0625647380948066,-0.2631024718284607,-0.0648247301578521,jumping
1783090621671174100,3.030174072265625,4.44163249438554,-1.5120733729451894,9.968132355332374,-0.0215787980705499,-0.5240852236747742,0.1163286492228508,jumping
1783090621681218000,3.040218017578125,4.669600707538426,-0.9331041489496826,9.637733110752702,0.0336306579411029,-0.7831040024757385,0.3075982332229614,jumping
1783090621691263200,3.05026318359375,4.212240093648433,-0.6312035613626241,9.280041954621671,0.065942108631134,-0.9762223362922668,0.3873233795166015,jumping
1783090621701307100,3.06030712890625,3.0606673812970517,-0.9494245846316218,8.921862138190866,0.1406882554292678,-1.0164475440979004,0.4276918470859527,jumping
1783090621711352000,3.07035205078125,2.1493775892704723,-0.4480798675864935,7.599218865689635,0.2944947779178619,-1.0992305278778076,0.4659982919692993,jumping
1783090621721396200,3.080396240234375,3.110904115106165,0.4905217097356915,5.9668631628066295,0.4973464012145996,-1.323512315750122,0.5442310571670532,jumping
1783090621731441200,3.090441162109375,3.171685623805225,1.7552736420214174,3.569742984855175,0.6157318949699402,-1.5963504314422607,0.8759496212005615,jumping
1783090621741485000,3.100485107421875,4.742478896744549,4.762901214787364,-0.1778437075465917,0.697619616985321,-1.6781299114227295,1.660916447639465,jumping
1783090621751530200,3.1105302734375,5.344135168844461,7.786806553137302,-5.008066646456718,0.7805920839309692,-1.2661551237106323,2.304710865020752,jumping
1783090621761574100,3.12057421875,2.689674845044314,6.676330698066949,-9.408988068008425,0.7512738704681396,-0.3747844994068146,2.5095458030700684,jumping
1783090621771619000,3.130619140625,-2.2035800118401645,3.0555332332789895,-11.3610597088933,0.5148133635520935,0.5498887300491333,2.370572805404663,jumping
1783090621781663200,3.140663330078125,-3.843608733569085,-0.6756015060156584,-9.70472691809535,0.1696591675281524,0.861711323261261,2.2783141136169434,jumping
1783090621791708200,3.150708251953125,-3.846697347234189,-1.4906056375026702,-5.994995032313466,-0.127102643251419,0.7428147792816162,2.015780448913574,jumping
1783090621801752000,3.160751953125,-3.4105110387980937,-2.8436075156494973,-3.718340724173188,-0.2210312634706497,0.6102614998817444,1.3724100589752195,jumping
1783090621811797500,3.170797607421875,-5.098173618361353,-4.548038566923141,-3.2384757252693173,-0.1655151396989822,0.8569895029067993,0.3890975713729858,jumping
1783090621821841200,3.180841064453125,-8.191562242782116,-5.549980982038378,-5.568607356575131,-0.0820969492197036,1.3834367990493774,-0.3499605059623718,jumping
1783090621831886300,3.19088623046875,-9.131409143990275,-3.310454335287213,-8.56390151746869,-0.0193827506154775,1.901244521141052,-0.6383613348007202,jumping
1783090621841930500,3.200930419921875,-9.433279628700015,0.9906889074340464,-10.383446848392486,0.0930862724781036,2.473534107208252,-0.8254731297492981,jumping
1783090621851975200,3.21097509765625,-8.484674251496791,2.6577643337816,-10.70989063334465,0.2854800820350647,2.7287633419036865,-0.9445632696151732,jumping
1783090621862019300,3.221019287109375,-5.046643337610364,3.314265125747025,-7.746196310329437,0.4266071319580078,2.2086822986602783,-1.0480769872665403,jumping
1783090621872064300,3.231064208984375,-2.817619087912142,2.701957111251354,-4.712047810384631,0.4918556213378906,1.143010139465332,-1.1423827409744265,jumping
1783090621882108200,3.241108154296875,-2.056076935891062,0.6167097565859556,-3.898502061012387,0.6647720336914062,-0.1656275540590286,-1.2209662199020386,jumping
1783090621892153300,3.2511533203125,-2.148351314962655,-1.7157799821533262,-4.713269461134076,0.9430668354034424,-1.4334402084350586,-1.28717303276062,jumping
1783090621902197200,3.261197265625,-2.444863487509638,-2.938919654981792,-6.517294566842914,1.1688501834869385,-2.2747552394866943,-1.23167884349823,jumping
1783090621912242200,3.2712421875,-3.0302096991911527,-2.4043869540840386,-9.203725023138524,1.1601297855377195,-2.2676808834075928,-0.9802350997924804,jumping
1783090621922286300,3.281286376953125,-3.855049288254976,-0.8069133256204426,-12.766255007874966,0.7768012881278992,-1.5480165481567385,-0.7388182282447815,jumping
1783090621932331300,3.291331298828125,-4.075683797518908,0.4594691304765641,-15.41091494541168,0.1854272484779358,-0.5273463726043701,-0.6139726638793945,jumping
1783090621942375200,3.301375244140625,-4.0250580643922085,1.4704289647839963,-16.82852548933029,-0.3282480537891388,0.3453787267208099,-0.5103693008422852,jumping
1783090621952420400,3.31142041015625,-4.485472220633924,2.6312656184345484,-16.534292367631195,-0.5001378059387207,0.7776679396629333,-0.417773574590683,jumping
1783090621962464300,3.32146435546875,-4.985191966825723,3.1461314958319067,-14.077005598008633,-0.351052463054657,0.9702837467193604,-0.4167980551719665,jumping
1783090621972509400,3.331509521484375,-5.227334835803508,2.633166483619809,-12.199772632747887,-0.1792827248573303,1.176666021347046,-0.5551170110702515,jumping
1783090621982553300,3.34155322265625,-5.104671748208999,1.60862352963984,-11.44654837334752,-0.160790279507637,1.3930795192718506,-0.7736008763313293,jumping
1783090621992598300,3.351598388671875,-4.2995168105632064,0.720191612239927,-10.863243458235264,-0.2003823518753051,1.5949825048446655,-0.9643785953521729,jumping
1783090622002642400,3.361642333984375,-3.1460891179949044,0.7002594158016144,-10.488768340563771,-0.2279833555221557,1.757551670074463,-1.1048723459243774,jumping
1783090622012687000,3.37168701171875,-1.7269092789329588,1.2183974467374383,-9.526466446441413,-0.2248216122388839,1.796513319015503,-1.1943082809448242,jumping
1783090622022731300,3.381731201171875,-0.8222305756092071,2.1287068494245407,-7.757240266913176,-0.2142677754163742,1.7293434143066406,-1.1918139457702637,jumping
1783090622032776400,3.3917763671875,-0.6977035938389599,2.8990649067163465,-5.816392030832171,-0.2423287630081176,1.6068445444107056,-1.1596462726593018,jumping
1783090622042820000,3.401820068359375,-0.9345710066318512,2.77331963519752,-3.657120239534974,-0.2851094901561737,1.3592393398284912,-1.146630048751831,jumping
1783090622052865300,3.411865234375,-1.1626816969953475,1.8524325782641768,-1.149231409922242,-0.3216379880905151,0.9392836689949036,-1.1600091457366943,jumping
1783090622062909400,3.421909423828125,-0.7734254820384084,0.3682318393677473,1.49015847825706,-0.3658491373062134,0.4326595664024353,-1.178328514099121,jumping
1783090622072954000,3.4319541015625,0.3911455358348786,-1.0381393715254963,3.798478090727329,-0.41933274269104,0.0900519490242004,-1.1618536710739136,jumping
1783090622082998300,3.441998291015625,1.2420767207495866,-2.0418278996557,5.709113559374213,-0.4243661165237427,-0.0951269567012786,-1.0644022226333618,jumping
1783090622093043200,3.452043212890625,1.6648254554636774,-2.253049852930009,7.710402527892589,-0.4328280091285705,-0.239584818482399,-0.8816971182823181,jumping
1783090622103087000,3.462087158203125,1.9941295982830225,-1.65675466947183,9.353497651454806,-0.4694978594779968,-0.4445060193538666,-0.6179578304290771,jumping
1783090622113132300,3.47213232421875,2.3749893024250865,-1.1486143009372054,10.76818850853443,-0.5444539785385132,-0.6714310646057129,-0.3276275098323822,jumping
1783090622123176400,3.482176513671875,2.777874522022903,-0.9464055290713904,11.6829220112741,-0.6581195592880249,-0.9068792462348938,-0.053946703672409,jumping
1783090622133221400,3.492221435546875,3.169523477335274,-0.9232930951617656,12.22408991240263,-0.7305029034614563,-1.118301510810852,0.2102024108171463,jumping
1783090622143265300,3.502265380859375,3.459792663839459,-0.9880785788051784,12.271526201838254,-0.6211923956871033,-1.2874116897583008,0.4611621797084808,jumping
1783090622153310200,3.512310302734375,3.3628765964418648,-1.0584713809363544,11.93739712308049,-0.3748553097248077,-1.447931885719299,0.6543183922767639,jumping
1783090622163354400,3.522354248046875,3.0669340404763816,-1.5081488929778335,11.53963348428011,-0.0997558385133743,-1.6045862436294556,0.7314789295196533,jumping
1783090622173399300,3.5323994140625,2.385954056292772,-2.2371508575305343,10.83212351282835,0.1273111402988433,-1.6687777042388916,0.736366868019104,jumping
1783090622183443200,3.542443115234375,1.590807302442193,-2.567788587041199,10.181237345874308,0.3160261809825897,-1.5931271314620972,0.7051975131034851,jumping
1783090622193487000,3.552487060546875,1.3879603788033128,-2.558286891463399,9.757215814745424,0.4518266916275024,-1.394154667854309,0.6617171168327332,jumping
1783090622203532300,3.5625322265625,1.6517431249201298,-2.1829043035581708,9.502736611285805,0.4940290153026581,-1.087072253227234,0.6422366499900818,jumping
1783090622213576200,3.572576171875,2.0295669684976336,-1.6748146422974763,9.079337595969438,0.4728992581367492,-0.6183454990386963,0.6718249320983887,jumping
1783090622223621400,3.582621337890625,2.3833999878957868,-1.1705310953214765,8.308055117309094,0.4266220331192016,-0.0513654388487339,0.7313228845596313,jumping
1783090622233665300,3.592665283203125,2.919401300041377,-1.095301374553144,7.569190222650766,0.3864854276180267,0.4127845168113708,0.7588341236114502,jumping
1783090622243710200,3.602710205078125,3.5144542283535003,-1.430814747276157,7.317753455626964,0.3521125316619873,0.7115986347198486,0.7435265779495239,jumping
1783090622253754400,3.61275439453125,3.6011189508497714,-1.730027849344909,7.307597972315549,0.2720557749271393,0.8400615453720093,0.7088234424591064,jumping
1783090622263799300,3.62279931640625,3.494318033775687,-2.0016345670856532,7.647383469399809,0.1729616671800613,0.7892135381698608,0.6777368783950806,jumping
1783090622273843200,3.63284326171875,3.502149750314653,-2.2305092275589704,8.436309741300343,0.0906828343868255,0.5979451537132263,0.6322317123413086,jumping
1783090622283888400,3.642888427734375,3.5778529338136313,-2.385862432486564,9.372012966832518,0.0771704912185669,0.3300122320652008,0.581322431564331,jumping
1783090622293932300,3.652932373046875,3.8740269604474302,-2.3045390710182487,9.970690223121643,0.1292111575603485,0.0912365540862083,0.524262011051178,jumping
1783090622303977200,3.662977294921875,4.1975478436902165,-1.80932642698735,10.10581414836049,0.195049837231636,-0.1063862368464469,0.429729700088501,jumping
1783090622314021400,3.673021484375,3.8808004001051186,-1.2158040692433714,10.353685331857204,0.2409485727548599,-0.3047403693199157,0.3058733940124511,jumping
1783090622324066000,3.683066162109375,2.588060682958365,-0.8976007277615368,10.477128171652556,0.2063051015138626,-0.4844542145729065,0.2079204767942428,jumping
1783090622334110200,3.693110107421875,1.8919751918405296,-0.5668370337836444,9.773159233808515,0.1857052445411682,-0.6619884967803955,0.1930944919586181,jumping
1783090622344155400,3.7031552734375,2.8138813626885413,0.3657124038927257,7.976234900015592,0.2826834321022033,-0.9279208183288574,0.1325515210628509,jumping
1783090622354199300,3.71319921875,3.54200946701616,1.17335901222378,5.428476416829228,0.4807837903499603,-0.9665088057518004,0.0497222132980823,jumping
1783090622364244200,3.723244140625,3.0279853011399505,2.422526714147627,1.7987410278260707,0.6654859781265259,-0.6408374905586243,0.1887551993131637,jumping
1783090622374288400,3.733288330078125,2.536225281780958,4.686723399513959,-1.584773867496848,0.725573718547821,0.0527024157345294,0.57041996717453,jumping
1783090622384333300,3.743333251953125,1.5675138128772377,6.544850682288408,-4.215831396138668,0.5652255415916443,0.9546223878860474,0.898970901966095,jumping
1783090622394377200,3.753377197265625,0.7880833913356066,5.728743557995557,-5.743393430116773,0.3485066294670105,1.8753409385681152,0.9643376469612122,jumping
1783090622404422400,3.76342236328125,-2.542757898420095,3.3945576828628776,-6.9225108597368,0.2076960057020187,2.517282009124756,0.6982713341712952,jumping
1783090622414466300,3.77346630859375,-5.152734060588479,-0.1859193158440291,-7.518208223432302,0.2056588977575302,2.5921170711517334,0.2604621648788452,jumping
1783090622424511200,3.78351123046875,-4.902980716606974,-2.695478855147958,-7.114227609813213,0.3623025715351105,2.2712414264678955,-0.1158467605710029,jumping
1783090622434555400,3.793555419921875,-4.419536397911608,-2.6665450216084716,-8.196603159558773,0.5564305186271667,2.393766164779663,-0.4525825381278991,jumping
1783090622444600300,3.803600341796875,-6.022316754481196,-2.2029718168139456,-13.081929561531544,0.5568638443946838,3.1512062549591064,-0.6192991137504578,jumping
1783090622454644200,3.813644287109375,-4.603009928038716,-1.5941069285094738,-16.582418392896653,0.3490263223648071,3.5348806381225586,-0.594531774520874,jumping
1783090622464689200,3.823689208984375,-0.9001417174812406,0.4051831212766468,-13.937521139472722,0.2115225493907928,3.460855007171631,-0.5760888457298279,jumping
1783090622474733300,3.8337333984375,1.6367423935346304,1.3713944439277053,-10.75464747443795,0.2714929282665252,3.151719331741333,-0.4872120022773742,jumping
1783090622484778200,3.8437783203125,1.127197053572908,1.7731372154921292,-8.421535366016625,0.4955843389034271,2.740205764770508,-0.5000548362731934,jumping
1783090622494822100,3.853822265625,-0.1280098371836356,-0.0326369258411228,-5.959861175090074,0.6942974925041199,2.029719114303589,-0.4551883041858673,jumping
1783090622504867300,3.863867431640625,-0.2801786216551438,-1.470242794562131,-3.414083636587858,0.6970213651657104,1.0670713186264038,-0.4547664523124695,jumping
1783090622514911200,3.8739111328125,-0.3730382532687857,-2.7565993865430354,-2.589277073010802,0.5155515074729919,0.1422125995159149,-0.6271633505821228,jumping
1783090622524956200,3.8839560546875,-1.0112686810608953,-3.899509776750207,-3.9807197409719226,0.2743591368198395,-0.5817171335220337,-0.8383573889732361,jumping
1783090622535000300,3.894000244140625,-1.0743156504739075,-3.67344535139203,-6.028012920296192,0.0876170396804809,-1.191146969795227,-0.9546881914138794,jumping
1783090622545045200,3.904045166015625,-0.9142495186150074,-2.3082981312908233,-7.576920524641871,-0.0488984584808349,-1.6176854372024536,-0.9461767673492432,jumping
1783090622555089200,3.914089111328125,-1.3106781094193458,-0.892042509112507,-9.25029972730875,-0.1272703856229782,-1.8974628448486328,-0.8996990919113159,jumping
1783090622565134300,3.92413427734375,-1.5784531400427222,-0.4149529662713408,-10.273227062785624,-0.0953220427036285,-1.9791404008865356,-0.8732339143753052,jumping
1783090622575178500,3.934178466796875,-2.263754932948202,-0.1237824470132589,-11.277047546732424,-0.2069660276174545,-1.7217198610305786,-0.8744168877601624,jumping
1783090622585223200,3.94422314453125,-2.708702493858337,-0.0797286396227777,-13.121868773210048,-0.503800630569458,-1.2375078201293943,-0.8662183284759521,jumping
1783090622595267300,3.954267333984375,-2.320724336013198,0.153903006119281,-14.129035060453417,-0.6549978852272034,-0.6636157035827637,-0.8415723443031311,jumping
1783090622605312300,3.964312255859375,-1.7597125012516974,0.1509587693609297,-14.321020106077194,-0.5614482760429382,-0.122194766998291,-0.8119438886642456,jumping
1783090622615356200,3.974356201171875,-0.8484504740148783,0.3125885703399777,-13.81486389709711,-0.2657397091388702,0.0819912701845169,-0.7286565899848938,jumping
1783090622625401300,3.9844013671875,0.3873393484849483,1.2731564802765845,-13.017466149449348,0.0249163545668125,0.1150618717074394,-0.6322051286697388,jumping
1783090622635445200,3.9944453125,-0.0663907999482005,2.309153432945907,-12.291494638633727,0.1482265293598175,-0.0210218522697687,-0.5340346693992615,jumping
1783090622646118100,4.0051181640625,-0.0630913200113922,2.480987378683686,-10.16109472155571,0.2044786214828491,-0.356007307767868,-0.4043866395950317,jumping
1783090622656162300,4.015162353515625,0.3194569948047399,2.6896844896554946,-7.207049685895442,0.2399939149618148,-0.795167088508606,-0.2740779221057892,jumping
1783090622666207200,4.025207275390625,0.5963743861742318,2.870258498948812,-4.584392905852198,0.2216506004333496,-1.2985475063323977,-0.1270655840635299,jumping
1783090622676251100,4.035251220703125,0.9593779694996774,2.4894442413836715,-2.164389864963293,0.1865181773900985,-1.839144825935364,-0.0311402902007102,jumping
1783090622686296300,4.04529638671875,1.1484298842810094,1.5320784884892402,-0.0634504356473684,0.1639697253704071,-2.2777509689331055,-0.0434022806584835,jumping
1783090622696340200,4.05534033203125,1.3481154212795197,0.5770670436359941,1.3231494684576988,0.1303770542144775,-2.453557252883911,-0.1260926574468612,jumping
1783090622706385400,4.065385498046875,1.5113120331838723,0.0472762765683233,2.3524504306197165,0.0631865635514259,-2.373842716217041,-0.1965593695640564,jumping
1783090622716429300,4.07542919921875,1.8806994723275303,-0.0666106532439589,3.9457384439617393,-0.0055248457938432,-2.2124624252319336,-0.2444255799055099,jumping
1783090622726474200,4.08547412109375,2.600702137866616,-0.1497821267969906,6.505891713818907,-0.0828654393553733,-2.0272305011749268,-0.2704273462295532,jumping
1783090622736518400,4.095518310546875,3.0947695573851464,-0.0021853812150657,9.12618585638404,-0.2198047041893005,-1.8824801445007324,-0.2307687401771545,jumping
1783090622746563000,4.10556298828125,3.097347883440554,0.1833086949542164,11.42256544021368,-0.3961190283298492,-1.7595199346542358,-0.1007343009114265,jumping
1783090622756607200,4.115607177734375,2.907997570234537,0.4017277201257646,13.26735627155304,-0.5677966475486755,-1.6783154010772705,0.0643653348088264,jumping
1783090622766651400,4.1256513671875,3.0532156039863825,0.5901622336611151,14.519268888270854,-0.6608027815818787,-1.5625574588775637,0.2293052971363067,jumping
1783090622776696300,4.1356962890625,3.4432825508043168,0.7704957121968269,14.632207869708536,-0.5949179530143738,-1.3424755334854126,0.360552966594696,jumping
1783090622786740200,4.145740234375,3.643128831322491,0.8531491532251239,13.559123879921437,-0.3985825181007385,-1.0276994705200195,0.4227553606033325,jumping
1783090622796785400,4.155785400390625,3.698308282230794,0.6442012823626398,12.25502982506752,-0.2764467895030975,-0.665398359298706,0.4777539670467376,jumping
1783090622806829000,4.1658291015625,3.313151319286227,0.3600552549138665,11.152593484067916,-0.2759141623973846,-0.2110497802495956,0.4937007129192352,jumping
1783090622816874000,4.1758740234375,2.508402916614711,-0.220797152479738,10.181763415575029,-0.3524501323699951,0.3091227412223816,0.4574940800666809,jumping
1783090622826918000,4.18591796875,1.8704080876767637,-0.8668700739331543,9.259951937273144,-0.4104756116867065,0.8434817790985107,0.38564333319664,jumping
1783090622836962800,4.195962890625,1.5619213996976613,-1.246175388240069,8.44627467047572,-0.4018560349941253,1.338241696357727,0.3162700533866882,jumping
1783090622847007000,4.206007080078125,1.5766493054911492,-1.382049401193857,7.856709525924921,-0.3309981226921081,1.772579312324524,0.2657110095024109,jumping
1783090622857052000,4.216052001953125,1.9730448708087205,-1.457668851932138,7.392109316170215,-0.2248827368021011,2.1038990020751953,0.2387361377477646,jumping
1783090622867096000,4.226095947265625,2.5350360719963905,-1.740228486972302,7.273415132206678,-0.132969856262207,2.331155776977539,0.192511647939682,jumping
1783090622877141000,4.23614111328125,2.5439509075969458,-2.1074771605215967,7.469272050827741,-0.1294966042041778,2.3657212257385254,0.1305617690086364,jumping
1783090622887185000,4.246184814453125,2.283801403415948,-2.475170216837525,8.097495135074853,-0.1472311168909073,2.243973970413208,0.0980709418654441,jumping
1783090622897229800,4.256229736328125,2.464348378571868,-2.4348054732233284,8.614307762625813,-0.1338089406490326,1.981399416923523,0.096415676176548,jumping
1783090622907274000,4.26627392578125,2.58450678986907,-2.361658257817477,9.169289669573306,-0.0723812729120254,1.6640838384628296,0.0977808088064193,jumping
1783090622917319200,4.276319091796875,2.3934151859536765,-2.2344088653460146,9.23927681351304,-0.004971276037395,1.4043452739715576,0.1244708970189094,jumping
1783090622927362800,4.28636279296875,2.3150926137365397,-2.013693107539415,9.265920490288734,0.0107901105657219,1.1487890481948853,0.1701073497533798,jumping
1783090622937408000,4.296407958984375,2.6102166929259893,-1.692118828319758,9.488525130581856,-0.08460683375597,0.8273411989212036,0.2252333164215088,jumping
1783090622947452000,4.306451904296875,3.0052421389341353,-1.0860282270342112,9.57910088904202,-0.2167395800352096,0.4119112193584442,0.3382187187671661,jumping
1783090622957496800,4.316496826171875,3.3387183067411184,-0.2946035624466836,9.529964809951183,-0.3188787698745727,-0.1509250402450561,0.4838001430034637,jumping
1783090622967541000,4.326541015625,2.625626443503797,0.233531254107505,9.089501262587309,-0.2780996561050415,-0.655574381351471,0.6054299473762512,jumping
1783090622977586000,4.3365859375,0.5199240375697612,0.6008066695332527,6.913806744277477,-0.0177163947373628,-1.0469157695770264,0.7695015072822571,jumping
1783090622987629800,4.3466298828125,0.805398244882375,1.3196334231607616,4.76484767268002,0.4012686312198639,-1.3754040002822876,0.9290869235992432,jumping
1783090622997675000,4.356675048828125,1.5221122441396115,1.898474929123372,3.485442653402686,0.6670420169830322,-1.3748230934143066,1.1029884815216064,jumping
1783090623008348000,4.367347900390625,4.382374541991949,5.7201358886480325,0.5028641816973686,0.6278402805328369,-1.0519109964370728,1.5140823125839231,jumping
1783090623018390800,4.377390869140625,4.411584854385256,5.735905704709888,0.5007154792308807,0.387210875749588,-0.3378706574440002,1.819382905960083,jumping
1783090623028436000,4.38743603515625,3.569664074400067,5.1202176923871034,-1.728666790124774,0.0542752780020237,0.9204775094985962,1.931357145309448,jumping
1783090623038480100,4.397480224609375,-0.972481342831254,4.2852620752394195,-5.267329577061534,-0.3319922685623169,2.2517459392547607,1.888745903968811,jumping
1783090623048524800,4.40752490234375,-3.360949427771568,1.7668588658750055,-6.87241616474688,-0.5497725605964661,2.9615862369537354,1.719615459442139,jumping
1783090623058569000,4.41756884765625,-1.6315119455352425,-0.5523968588903546,-5.828478189945221,-0.5554730892181396,3.2167468070983887,1.3693618774414062,jumping
1783090623068614000,4.42761376953125,-1.6565490638971327,-1.4462348731175063,-7.716884291127323,-0.4877976477146148,3.206763505935669,0.7593171000480652,jumping
1783090623078657800,4.43765771484375,-0.0721118444761261,-4.359879509328305,-9.971157840633392,-0.3310462534427643,2.973680257797241,-0.042415827512741,jumping
1783090623088703000,4.447702880859375,1.194597907346487,-5.87476998552084,-10.97595213804841,0.0891507565975189,2.7952258586883545,-0.483257919549942,jumping
1783090623098747100,4.4577470703125,-1.3283281862698495,-3.26062735132277,-11.750274130535123,0.5343319177627563,2.599393606185913,-0.6535230278968811,jumping
1783090623108791800,4.467791748046875,-3.403838429166377,-1.2160048525124787,-11.789343573641776,0.8718311190605164,2.3014466762542725,-0.8912727236747742,jumping
1783090623118836000,4.4778359375,-3.23475933509469,-0.5842454108327627,-10.033970562899112,1.063580870628357,1.8177642822265625,-1.1050223112106323,jumping
1783090623128881000,4.487880859375,-1.682374556157738,0.4222188656210899,-6.975698844566941,1.0801994800567627,1.2360191345214844,-1.2562464475631714,jumping
1783090623138924800,4.4979248046875,-0.8235806019786744,1.3405883867755533,-6.351085767510533,1.0109413862228394,0.8258505463600159,-1.299843192100525,jumping
1783090623148970000,4.507969970703125,-1.1500152537763118,1.2403631948299705,-7.635325367337465,0.9419549107551576,0.5517632961273193,-1.3076207637786863,jumping
1783090623159014000,4.518013916015625,-0.4096613626692444,-0.0004864683426916,-8.068654825037717,0.8029047250747681,0.3576402962207794,-1.2514690160751345,jumping
1783090623169059000,4.52805908203125,1.138617953710258,-0.1263046589672565,-9.099353963559864,0.535038411617279,0.2541317641735077,-1.0768500566482544,jumping
1783090623179103000,4.53810302734375,2.654901345565915,0.7378885969720781,-10.698843169629573,0.2071482390165329,0.0233323741704225,-0.7833943963050842,jumping
1783090623189148000,4.54814794921875,3.406459133058786,1.3759903934158384,-11.787599360322952,-0.0156922973692417,-0.4231652319431305,-0.4188806116580963,jumping
1783090623199192000,4.558192138671875,3.163872611966729,1.7822867366313933,-12.642777096766231,-0.0674611255526542,-1.0167938470840454,-0.0841720029711723,jumping
1783090623209236700,4.56823681640625,2.3128186774551867,2.038694570066035,-13.129945696681736,-0.0024275332689285,-1.603275179862976,0.1688828915357589,jumping
1783090623219281000,4.578281005859375,1.1022697522610423,2.2990074481151996,-13.350748840510844,0.0886242464184761,-2.114783525466919,0.3005870878696441,jumping
1783090623229326000,4.588326171875,-0.0949388490404933,2.4541543168157336,-13.151920212602615,0.1308228224515915,-2.5178017616271973,0.3314288854598999,jumping
1783090623239370000,4.598369873046875,-1.0952548319976776,2.8228368225604292,-12.756880445808171,0.0923384577035904,-2.766939640045166,0.3058821856975555,jumping
1783090623249415000,4.608414794921875,-1.126085219873488,3.132724024987221,-12.58847267512679,0.0019033625721931,-2.6822609901428223,0.2206130772829055,jumping
1783090623259459000,4.618458984375,-1.055810929555446,2.83175984146744,-13.464863879990578,-0.0559028387069702,-2.288572072982788,0.0261526778340339,jumping
1783090623269503700,4.628503662109375,-0.7999830149006099,1.965563575142622,-13.643796551817656,-0.1321089267730713,-1.947830080986023,-0.1899077147245407,jumping
1783090623279548000,4.6385478515625,-0.3579639086578041,1.4638754514873027,-12.608656215977668,-0.2097909748554229,-1.660806655883789,-0.3245211541652679,jumping
1783090623289593000,4.648593017578125,-0.1016721758835017,1.648522409307957,-10.892767658883333,-0.322380393743515,-1.551800012588501,-0.3458717167377472,jumping
1783090623299636700,4.65863671875,0.0945619054868817,2.2913388131834567,-8.045444629842043,-0.4555160999298095,-1.6740097999572754,-0.2758555114269256,jumping
1783090623309681000,4.668680908203125,0.1882531656190753,2.7625767073869705,-4.651785357123613,-0.5847201943397522,-2.0067291259765625,-0.1733171343803405,jumping
1783090623319726000,4.67872607421875,0.1916165045723319,3.055798606216907,-1.4252882389396428,-0.679310142993927,-2.4605112075805664,-0.0920252427458763,jumping
1783090623329769700,4.688769775390625,0.2986070989996194,3.0191847395688294,1.4431915598988532,-0.670337975025177,-3.0029375553131104,-0.0829063132405281,jumping
1783090623339815000,4.69881494140625,0.622441870497167,2.432253889044374,3.620152737143635,-0.5150966644287109,-3.41900372505188,-0.1605472564697265,jumping
1783090623349859000,4.708859130859375,1.2708181004568937,1.0943889358833432,4.901974169912934,-0.2464132606983184,-3.601344585418701,-0.325045645236969,jumping
1783090623359904000,4.718904052734375,1.9258637251779436,-0.5977345686115324,6.018978549969196,0.0310431960970163,-3.6658051013946538,-0.5992341041564941,jumping
1783090623369948000,4.728947998046875,2.4246070275530216,-2.0417887366890906,7.373143334415555,0.1965647786855697,-3.641245603561402,-0.9198179841041564,jumping
1783090623379993000,4.7389931640625,3.051390142124891,-2.7289024013221264,8.645399650982021,0.2288684099912643,-3.5122203826904297,-1.1661752462387085,jumping
1783090623390037000,4.749037109375,3.9016123019874094,-2.4298767846494913,9.768743755453825,0.178604707121849,-3.229194164276123,-1.2655935287475586,jumping
1783090623400082000,4.75908203125,4.987657480156422,-1.2155660227037963,10.847316405785085,0.0701376795768737,-2.898310422897339,-1.1916770935058594,jumping
1783090623410126000,4.7691259765625,5.932445929419994,0.1357869191922247,12.03794307141304,-0.0665682330727577,-2.4813270568847656,-1.023287296295166,jumping
1783090623420171000,4.7791708984375,6.60564563499093,0.9323895709395408,12.687637982755898,-0.2273194342851638,-2.013953924179077,-0.758888304233551,jumping
1783090623430215000,4.78921484375,7.228043374085426,1.4814964483737945,12.810382903414965,-0.4407392740249634,-1.536543369293213,-0.479971706867218,jumping
1783090623440259800,4.799259765625,7.335698862162232,1.395118287733942,12.391495812565088,-0.6496515870094299,-0.9021698832511902,-0.2292332500219345,jumping
1783090623450304000,4.809303955078125,6.937077729749679,1.104122686651349,11.157358506512642,-0.7446007132530212,-0.1472841501235962,-0.0269544590264558,jumping
1783090623460349000,4.819348876953125,6.044841890022158,0.5269942682169377,9.741889650797845,-0.7311798334121704,0.6148614287376404,0.107020728290081,jumping
1783090623470392800,4.829392822265625,5.179566537934542,-0.2847518843874335,8.691980784893035,-0.6544632315635681,1.3034579753875732,0.1986268162727356,jumping
1783090623480438000,4.83943798828125,4.3854213623419405,-0.9863925254143774,7.839835548013448,-0.5644752979278564,1.9119555950164795,0.2891075909137726,jumping
1783090623490482000,4.84948193359375,3.575684065341949,-1.5387765248231589,7.003821361723542,-0.474021852016449,2.4130325317382812,0.3607988357543945,jumping
1783090623500526800,4.85952685546875,3.054514703886211,-2.149908335146308,6.301515973177552,-0.3700331449508667,2.7236392498016357,0.3659489154815674,jumping
1783090623510571000,4.869571044921875,2.725667949445546,-2.7690105398267506,5.728397521036863,-0.2480545341968536,2.8558146953582764,0.2867006957530975,jumping
1783090623520616000,4.879615966796875,2.5334192844495176,-3.2810295033603905,5.093474646890163,-0.1352796405553817,2.847729444503784,0.1405249536037445,jumping
1783090623530659800,4.889659912109375,2.951287845906615,-3.3516789106011387,4.706460950163007,0.0040034223347902,2.681365489959717,-0.0070602409541606,jumping
1783090623540705000,4.899705078125,2.60141320874542,-3.296739113667607,5.687656345325708,0.1447921693325042,2.307337999343872,-0.0861432701349258,jumping
1783090623550749200,4.909749267578125,2.775078753824532,-2.848176723261177,7.650251718312502,0.1815403252840042,1.7183067798614502,-0.1082235425710678,jumping
1783090623560793900,4.9197939453125,3.1518288306906816,-3.138612498503923,9.075217301169037,0.1714493483304977,1.0304906368255615,-0.1732229441404342,jumping
1783090623570838000,4.929838134765625,3.379221289782226,-3.605216741557419,9.945415496611597,0.2015662342309951,0.3484452366828918,-0.2176719009876251,jumping
1783090623580883000,4.939883056640625,3.467978600643575,-3.392430607706308,10.290948597437144,0.1249895244836807,-0.0316375270485878,-0.200281336903572,jumping
1783090623590926800,4.9499267578125,3.5327547319367527,-2.696636208489537,8.636144331380724,0.0928504988551139,-0.4596714079380035,-0.2156347334384918,jumping
1783090623600972000,4.959971923828125,3.0272447119057175,-2.870173743274808,9.702308751037716,0.0773013606667518,-0.690614640712738,-0.2853245735168457,jumping
1783090623611016000,4.970015869140625,2.6272236495673655,-2.0295948794178664,9.824793559455872,0.0677661821246147,-0.9969990253448486,-0.2748690247535705,jumping
1783090623621060900,4.980060791015625,2.512748544603586,-0.7036987426005303,9.145327779227497,0.1044599488377571,-1.289345622062683,-0.1630371063947677,jumping
1783090623631105000,4.99010498046875,2.7943524863541125,0.5081524973638355,7.3121291860044,0.1912153512239456,-1.509171962738037,0.0179510414600372,jumping
1783090623641150000,5.00014990234375,2.0953072686478493,1.7014707401633262,4.270859455877543,0.2860191762447357,-1.4061839580535889,0.2510269284248352,jumping
1783090623651193900,5.01019384765625,1.8595541007071732,2.4144015676200388,0.6836275760829448,0.3195425271987915,-0.9756456613540648,0.5584737062454224,jumping
1783090623661238800,5.02023876953125,4.18694695469886,3.780262635079026,-2.196425171649456,0.2707308530807495,-0.1806601732969284,1.1061862707138062,jumping
1783090623671283000,5.030282958984375,4.843602644965053,6.520689469978213,-4.706430555024743,0.0851561874151229,1.065718650817871,1.734935641288757,jumping
1783090623681328000,5.040328125,2.3721219302952288,7.610238272354007,-6.928904360166191,-0.2061799615621566,2.3804571628570557,2.428751230239868,jumping
1783090623691372000,5.0503720703125,-0.1228895898267626,8.218972812277078,-7.329657243910432,-0.5253521203994751,3.7148423194885254,3.141775608062744,jumping
1783090623701417000,5.0604169921875,-2.106545286498964,8.470456341052055,-8.017669318687915,-0.7469549179077148,4.583975791931152,3.443009853363037,jumping
1783090623711460900,5.0704609375,0.5007391523674131,5.145564899611473,-6.357200450998544,-0.9079056978225708,4.521222114562988,3.2120978832244873,jumping
1783090623721505000,5.080505126953125,1.474126796388626,-0.3557549273714423,-3.5598569661349058,-1.0147091150283811,4.175502300262451,2.3360042572021484,jumping
1783090623731550000,5.090550048828125,-2.949855767276883,-6.2875663582801815,-6.35909137931168,-0.9389034509658812,4.276144981384277,1.3806769847869873,jumping
1783090623741593900,5.10059375,-8.115185105544327,-8.69812527899742,-11.431003598213197,-0.552018404006958,4.180412292480469,0.6342149972915649,jumping
1783090623751638800,5.110638671875,-7.576041988241672,-8.343106556946038,-11.519755063855648,0.096311904489994,3.1627233028411865,0.2073256969451904,jumping
1783090623761683000,5.120682861328125,-2.623412566846609,-4.0972693141222,-6.29159722123146,0.7689381241798401,1.4868863821029663,-0.2539321184158325,jumping
1783090623771728100,5.13072802734375,-2.140495194634795,-1.7654840703904628,-2.5130203472822905,1.17183256149292,0.294997900724411,-1.203922152519226,jumping
1783090623781771800,5.140771728515625,-5.751594272229075,-2.935721151201427,-3.2080607132613657,1.241257905960083,-0.410173237323761,-2.0183279514312744,jumping
1783090623791817000,5.15081689453125,-6.776374542096256,-2.317040971325338,-2.5809178254663943,1.1980856657028198,-0.6462550759315491,-2.452031135559082,jumping
1783090623801861000,5.160861083984375,-4.763176524597406,-0.197020993964374,-2.962347584581375,1.3176631927490234,-0.8838208913803101,-2.75846004486084,jumping
1783090623811905800,5.17090576171875,-3.9611896955937143,0.111635497623682,-2.711784093260765,1.390326738357544,-1.250840425491333,-2.9724338054656982,jumping
1783090623821950000,5.180949951171875,-2.778457582607865,-0.549409221381694,-2.6126854211270807,1.0474940538406372,-1.6943732500076294,-2.9347264766693115,jumping
1783090623831995100,5.1909951171875,-0.3459473807148635,-0.445075278943032,-5.052474527981877,0.377934992313385,-0.9992828369140624,-2.6412482261657715,jumping
1783090623842038800,5.201038818359375,0.2993842208519577,0.1547840267375111,-15.430578261780738,-0.3735248744487762,0.3447566926479339,-1.918111801147461,jumping
1783090623852084000,5.211083984375,1.8322911229893564,3.284970642201602,-24.035558808612823,-0.5839649438858032,1.0168414115905762,-0.9520909190177916,jumping
1783090623862128000,5.221128173828125,4.075308242204785,4.764469779278338,-22.77590010781288,0.1232509613037109,0.8616994619369507,-0.1255746632814407,jumping
1783090623872172800,5.2311728515625,3.4452544353991743,3.277720524942875,-17.320037086886167,0.9974570274353028,0.4924667775630951,0.3720555901527405,jumping
1783090623882217000,5.241217041015625,-1.021083461175859,1.6330302411437034,-12.385088283610344,1.322911024093628,0.1554757505655288,0.4357233643531799,jumping
1783090623892262000,5.251261962890625,-5.851909334415197,-0.3230845376521348,-7.442389889121055,1.0001540184020996,-0.2043386101722717,0.0469889231026172,jumping
1783090623902305800,5.261305908203125,-8.115899391293524,-1.7284511015474795,-3.278974908918142,0.2941173613071441,-0.4676269292831421,-0.5353186130523682,jumping
1783090623912351000,5.27135107421875,-7.636148374158144,-1.6191618747889995,-2.934696192067862,-0.4815727770328522,-0.7119618058204651,-1.0162076950073242,jumping
1783090623922395000,5.281394775390625,-4.9865831289231775,-0.8683623583175242,-5.586362793496251,-1.051483988761902,-0.9398184418678284,-1.1936672925949097,jumping
1783090623932440000,5.291440185546875,-2.6047213103801012,0.5373134176574648,-10.050333668679,-1.1248786449432373,-1.0296473503112793,-1.066370129585266,jumping
1783090623942484000,5.30148388671875,-0.7535157896928488,1.4186442708805205,-15.494723693954944,-0.7121607661247253,-0.9667961597442628,-0.8185959458351135,jumping
1783090623952529000,5.31152880859375,0.5788286464810372,1.729119502328336,-18.259348566043375,-0.3897174596786499,-1.026143193244934,-0.5381972789764404,jumping
1783090623962573000,5.321572998046875,1.031701009041071,1.0821633682996037,-17.049834829115866,-0.3860134482383728,-1.194790959358215,-0.3035967946052551,jumping
1783090623972618000,5.331617919921875,0.7290098555982113,0.7006226961560547,-13.733825782310962,-0.4235834777355194,-1.5047693252563477,-0.1614159345626831,jumping
1783090623982662000,5.341661865234375,0.4138657555565238,1.0240160074964164,-9.249904005989432,-0.1977260112762451,-1.8450958728790283,-0.0634135901927948,jumping
1783090623992707000,5.35170703125,0.1945614719830453,1.804611235033721,-4.800533903089166,0.1348234415054321,-2.0715527534484863,0.0420838072896003,jumping
1783090624002751000,5.3617509765625,0.1177813069023191,2.302442098738998,-0.1509989552408456,0.3565230071544647,-2.1476783752441406,0.1227012649178505,jumping
1783090624012796000,5.3717958984375,0.371744231402874,2.622811678344011,3.6154829917669296,0.3737675249576568,-2.1942150592803955,0.1635280549526214,jumping
1783090624022840000,5.381840087890625,1.297844639070332,2.5124685586184263,6.424747800570726,0.230179950594902,-2.268731594085694,0.206080675125122,jumping
1783090624032884700,5.391884765625,2.330267532645166,2.050838304585218,7.877690354633331,0.0092217400670051,-2.3314013481140137,0.2698583304882049,jumping
1783090624042929000,5.401928955078125,3.1472339041158555,1.487390767109394,8.077326207271218,-0.2116640657186508,-2.3440773487091064,0.2883425951004028,jumping
1783090624052974000,5.41197412109375,3.335289501336217,0.714643330463022,7.828938306424021,-0.385392427444458,-2.2835474014282227,0.2180047780275344,jumping
1783090624063017700,5.422017822265625,2.8044121080756184,0.0183780988641083,7.876315559148788,-0.4961918890476227,-2.1369643211364746,0.0966300219297409,jumping
1783090624073063000,5.43206298828125,2.138664179815352,-0.4248044982001185,8.271760399612784,-0.5094482898712158,-1.9176589250564575,-0.0277396030724048,jumping
1783090624083107000,5.442107177734375,2.1333888697609305,-0.635551965830475,9.0977085344404,-0.4176428020000458,-1.7274259328842163,-0.1268803626298904,jumping
1783090624093152000,5.452152099609375,2.787667017240822,-0.6797527804762125,10.248325261241195,-0.2678855359554291,-1.5596247911453247,-0.1949102878570556,jumping
1783090624103196000,5.46219580078125,3.910347397106886,-0.7518164384290575,11.27824815469384,-0.1386940330266952,-1.425294280052185,-0.2264444679021835,jumping
1783090624113240000,5.472239990234375,4.931937346500158,-0.8064864785104989,11.768572003769874,-0.0446096062660217,-1.308272361755371,-0.2075605243444442,jumping
1783090624123285000,5.482284912109375,5.675864200723171,-0.7291168231040239,11.55928744829893,0.0230116099119186,-1.1481114625930786,-0.1500810235738754,jumping
1783090624133329000,5.492328857421875,5.891936224377155,-1.0283359165221453,10.947091954267025,0.0532254390418529,-0.91586434841156,-0.1319438368082046,jumping
1783090624143374000,5.5023740234375,5.550487762516736,-1.8451063270293175,10.36529159849882,0.0498266071081161,-0.6140214800834656,-0.1711265444755554,jumping
1783090624153418000,5.51241796875,5.070263282650709,-2.5015394605860113,9.772803844499588,0.0323975495994091,-0.2566250264644623,-0.2308519184589386,jumping
1783090624163463000,5.522462890625,4.584854385884106,-2.8360440946578978,9.079134182351828,0.0196629837155342,0.1825367510318756,-0.2888025641441345,jumping
1783090624173507000,5.532507080078125,3.985277550406754,-2.9056279184937477,8.170012674275041,0.0274671129882335,0.7013852596282959,-0.3216486573219299,jumping
1783090624183552000,5.542552001953125,3.570618306384981,-2.829075424689054,7.213205285915732,0.0890648663043975,1.227977633476257,-0.3173107504844665,jumping
1783090624193596000,5.552595947265625,3.420415177696943,-2.7270085503995416,6.357690280342101,0.2035384625196457,1.6671059131622314,-0.3138670325279236,jumping
1783090624203640800,5.562640869140625,3.3291765714138744,-2.7323668625622988,5.838894954541325,0.3318159580230713,2.0405306816101074,-0.3449208736419678,jumping
1783090624213685000,5.57268505859375,3.2322029286101457,-2.670413387474418,5.7652621475756165,0.3904044330120086,2.313575983047486,-0.3955395817756653,jumping
1783090624223730000,5.58272998046875,3.073626816113293,-2.644049112161994,6.402292223134636,0.3229787945747375,2.451885938644409,-0.4435820281505584,jumping
1783090624233773800,5.59277392578125,2.8346140618547797,-2.479442195068299,7.360982356500625,0.1933941543102264,2.50420880317688,-0.4842599630355835,jumping
1783090624243819000,5.602819091796875,2.48131587998569,-2.238041522759944,8.152244377872348,0.1103654503822326,2.51442289352417,-0.5434563755989075,jumping
1783090624253863000,5.61286279296875,2.381791091394424,-2.2880554075986144,8.776316187658905,0.1057752221822738,2.4244272708892822,-0.5968471169471741,jumping
1783090624263907800,5.622907958984375,2.679904269397259,-2.1177172533765436,9.601712533822656,0.1845440864562988,2.1153438091278076,-0.6405153274536133,jumping
1783090624273952000,5.632951904296875,3.1378406373485923,-1.96556708227396,10.390112736022472,0.3371464014053345,1.7226803302764893,-0.6968720555305481,jumping
1783090624283997200,5.6429970703125,3.3851527256578207,-1.7288874471381306,10.62387823727727,0.4384047389030456,1.1282793283462524,-0.6923998594284058,jumping
1783090624294040800,5.653040771484375,3.0663994952082634,-1.0594994088098406,10.677947681117056,0.3838245868682861,0.4366446435451507,-0.5794621109962463,jumping
1783090624304086000,5.6630859375,2.091550254201889,-0.5629540548704565,9.388747828534244,0.3455424308776855,-0.0753190666437149,-0.4498608708381653,jumping
1783090624314130000,5.6731298828125,1.1160580391168593,-0.3959710562951862,6.939965852406621,0.4415128827095032,-0.4362418353557586,-0.4198537170886993,jumping
1783090624324174800,5.6831748046875,0.1333002169430255,-0.4767657177142798,4.554784534052014,0.5907776355743408,-0.540601909160614,-0.369143396615982,jumping
1783090624334219000,5.693218994140625,-1.0985434252142905,0.2487621409870684,1.81330789783895,0.662566602230072,-0.3958953619003296,-0.2512931823730469,jumping
1783090624344264000,5.703263916015625,0.4024687477514148,1.3289416419930755,-0.1488309635519981,0.6067205667495728,-0.3038224279880523,-0.0871085524559021,jumping
1783090624354307800,5.713307861328125,3.9785546718925233,2.6049144948646425,-1.0489525880932806,0.4218246936798095,-0.0840149745345115,0.1691930145025253,jumping
1783090624364353000,5.72335302734375,4.792058627949655,4.271959526073933,-3.165830760297179,0.2249602675437927,0.3022702634334564,0.4503418505191803,jumping
1783090624374397000,5.73339697265625,3.0064614515960213,4.344277158787846,-4.591749113833904,0.124890387058258,1.062519073486328,0.9978395700454712,jumping
1783090624384441900,5.74344189453125,-4.1593540143743155,5.628736538845301,-6.291789528933167,-0.0185618177056312,2.169912338256836,1.4760187864303589,jumping
1783090624394486000,5.753486083984375,-3.4290178786084056,4.421602390530706,-7.178509235587716,-0.0929018259048461,2.242478847503662,1.6360515356063845,jumping
1783090624404531000,5.763531005859375,3.1809289607077833,0.9250282483913004,-3.3937264927357433,-0.3441340625286102,1.772526502609253,0.9293619394302368,jumping
1783090624414574800,5.773574951171875,1.0937141053617,-4.746875962659717,-6.315295492205023,-0.7509148120880127,1.4108649492263794,0.002222107257694,jumping
1783090624424620000,5.7836201171875,-3.2782384113371372,-7.522758726343512,-11.4923152682662,-0.8567225337028503,1.0077399015426636,-0.4257231950759887,jumping
1783090624434664000,5.793663818359375,-4.176758738161623,-6.693318073225021,-13.34301678495407,-0.4885431826114654,0.4849902987480163,-0.4288731813430786,jumping
1783090624444709000,5.803709228515625,-2.854397497472166,-3.898891937112808,-12.82568451744318,0.1007908955216407,0.0289735868573188,-0.35496786236763,jumping
1783090624454753000,5.8137529296875,-1.5993939290016888,-0.9951165146179496,-10.869949093353748,0.4929272532463074,-0.3722225725650787,-0.3422376811504364,jumping
1783090624464798000,5.8237978515625,-1.8846636997833848,0.3582376840978861,-7.866300945612788,0.5562563538551331,-0.6031221151351929,-0.2936964333057403,jumping
1783090624474841900,5.833841796875,-3.5206039831548925,2.2800297759227455,-5.0431268539220095,0.3812430202960968,-0.7185682654380798,-0.2338938117027282,jumping
1783090624484886800,5.84388671875,-4.438504425492883,3.149061411803961,-2.835942972370982,0.0930548906326294,-0.6591627597808838,-0.3006035983562469,jumping
1783090624494931000,5.853930908203125,-4.767595510083437,2.7193606659948824,-2.537949036833644,-0.3562592566013336,-0.6675080060958862,-0.4938697516918182,jumping
1783090624504974800,5.863974853515625,-4.26968924305439,1.4156371980190277,-3.157541070857644,-0.768804669380188,-0.8145812153816223,-0.7721925973892212,jumping
1783090624515019800,5.874019775390625,-3.2403049865230917,-0.4922819974064826,-4.045636157518625,-1.0591678619384766,-0.9191374182701112,-0.8626444935798645,jumping
1783090624525064000,5.88406396484375,-2.6089707845181227,-0.4510698431827127,-6.696141898474097,-1.23715341091156,-0.935951054096222,-0.8104046583175659,jumping
1783090624535109000,5.894109130859375,-1.7548418264754115,-0.1060213110037148,-9.07334741564393,-1.276670217514038,-0.7281251549720764,-0.6675614714622498,jumping
1783090624545153000,5.904153076171875,-1.2379188704177737,0.4594532022550702,-11.144556308084724,-1.1560252904891968,-0.2347250431776046,-0.4803115427494049,jumping
1783090624555198000,5.914197998046875,-1.118999645526707,0.8657017608061433,-12.849874371325969,-0.7667819261550903,0.1855044513940811,-0.293773889541626,jumping
1783090624565242000,5.9242421875,-1.140770163308084,1.466733471266925,-12.326191858005522,-0.0186076760292053,0.1853215545415878,-0.108706533908844,jumping
1783090624575286800,5.934286865234375,-1.5289517347708343,1.9298186002835631,-9.961403339338302,0.6427407264709473,-0.0988281369209289,0.0114566227421164,jumping
1783090624585331000,5.9443310546875,-2.1536559972420335,1.4242691250249742,-7.509190219718217,0.8162015080451965,-0.3431755900382995,0.0122661525383591,jumping
1783090624595376000,5.954376220703125,-3.5961101827770467,0.6503168426334858,-6.406329515826702,0.5540370345115662,-0.3490915298461914,-0.1329783946275711,jumping
1783090624605419800,5.964419677734375,-4.67633469196856,-0.7583622068107128,-6.753291772672534,0.1145640239119529,-0.1085916459560394,-0.3815619647502899,jumping
1783090624615465000,5.97446484375,-5.0629287019789215,-1.5751749951548872,-7.739016043436527,-0.3535453975200653,0.1940337419509887,-0.6407434344291687,jumping
1783090624625509000,5.984509033203125,-5.04760136898756,-1.2831506355464457,-8.90473155516982,-0.6778547763824463,0.5368145108222961,-0.7652789950370789,jumping
1783090624635553800,5.9945537109375,-4.620923478130996,-0.54105684196949,-9.747717918559909,-0.7763842940330505,0.7881921529769897,-0.7139401435852051,jumping
1783090624645598000,6.004597900390625,-3.835345639875531,0.3790488553278148,-10.026507387411591,-0.7623959183692932,1.0576984882354736,-0.5884866118431091,jumping
1783090624655643000,6.014642822265625,-3.2913390081897376,0.8773442678049206,-10.813121875238418,-0.7429276704788208,1.414586901664734,-0.4877600371837616,jumping
1783090624665686800,6.024686767578125,-2.4422573966644703,0.9193772368922828,-11.298066953885554,-0.678364634513855,1.7200525999069214,-0.3884526193141937,jumping
1783090624675732000,6.03473193359375,-1.0949373635463415,1.581577117282152,-10.683248125612735,-0.4451878368854522,1.8839328289031985,-0.2247555702924728,jumping
1783090624685776000,6.04477587890625,-0.0373335592247545,2.77721722715795,-8.87145998468697,-0.0717402920126915,1.8720186948776243,-0.0106402672827243,jumping
1783090624695821000,6.054821044921875,1.1718936158463358,3.253502906270325,-5.656636353161931,0.20101960003376,1.6319084167480469,0.25392746925354,jumping
1783090624705865000,6.064864990234375,2.2556256947673856,3.1711358809679746,-2.1399258703142405,0.2137765735387802,1.2731044292449951,0.5229818820953369,jumping
1783090624715910000,6.074909912109375,3.107054746201634,2.5612749673634765,0.5567372261822223,-0.020691055804491,0.8707528114318848,0.7318578958511353,jumping
1783090624725954000,6.0849541015625,3.908551161339879,1.44986475405246,2.6970366059839725,-0.3297097682952881,0.3380285799503326,0.8985613584518433,jumping
1783090624735999000,6.0949990234375,4.386476424352824,0.3600255904279649,4.294909024506807,-0.4731300473213196,-0.1093071028590202,0.9793603420257568,jumping
1783090624746043000,6.10504296875,3.736796710579097,-0.5914297693789005,4.976687757852673,-0.3705706298351288,-0.3987016081809997,1.0185339450836182,jumping
1783090624756088000,6.115088134765625,2.2683787933565673,-0.8917460103839635,5.847731756469607,-0.0833358988165855,-0.6012097001075745,1.039687156677246,jumping
1783090624766132000,6.125132080078125,1.0798112522155046,-1.2899208603337406,7.403351425674558,0.2560755610466003,-0.827003538608551,0.998752236366272,jumping
1783090624776177000,6.135177001953125,0.7939237879268825,-1.491512230953574,9.59019569903016,0.4996213614940643,-1.1238300800323486,0.8978061676025391,jumping
1783090624786221000,6.145220947265625,0.3829027542769909,-0.8558489137031138,11.874684938579795,0.5585474371910095,-1.3793916702270508,0.7766939997673035,jumping
1783090624796265700,6.155265625,-0.2323201247520744,-0.505404659960419,14.025015883052347,0.4682449996471405,-1.5914599895477295,0.640585720539093,jumping
1783090624806310000,6.165309814453125,-0.4729410448595881,-0.9105750678859652,15.522394960212706,0.2990497052669525,-1.624606370925903,0.4709838926792145,jumping
1783090624816355000,6.17535498046875,-0.3836097335025668,-1.4774253995426,15.419455979263782,0.1194442585110664,-1.4317373037338257,0.3164944648742676,jumping
1783090624826399000,6.18539892578125,0.2000152073442936,-1.7308133006341757,14.460278939163684,-0.0371659025549888,-1.0738943815231323,0.2207226902246475,jumping
1783090624836444000,6.19544384765625,0.8181006361976265,-1.8795872733019292,13.033335918754338,-0.1150913313031196,-0.5482504963874817,0.1325856447219848,jumping
1783090624846488000,6.205488037109375,1.0214790363647044,-1.958718823814392,11.52432251790166,-0.1199430301785469,0.0374309122562408,0.1067888960242271,jumping
1783090624856532000,6.215531982421875,1.4498384505674242,-1.9081712704904377,10.5619013813138,-0.0851682722568512,0.5409345030784607,0.1314140856266021,jumping
1783090624866577000,6.225576904296875,1.878590809610486,-1.9961660725466903,9.869058233118055,-0.0101888505741953,0.929551362991333,0.1365063786506652,jumping
1783090624876621000,6.23562109375,1.9924897221215068,-2.3068694136619565,8.733978682667017,0.1209468021988868,1.2280973196029663,0.1246491819620132,jumping
1783090624886665700,6.245665771484375,1.918693249026686,-2.5043270454779267,7.512275910773873,0.2384590059518814,1.48136568069458,0.1111981347203254,jumping
1783090624896710000,6.2557099609375,1.7233917723312973,-2.612511818125844,6.578877455052733,0.3028430640697479,1.6586432456970217,0.0790031775832176,jumping
1783090624906755000,6.265755126953125,1.608620022508502,-2.9288316839486357,6.421298536899686,0.2621960341930389,1.6868685483932495,0.0619547851383686,jumping
1783090624916798700,6.275798828125,1.5199318313606085,-3.151182641741633,6.662765114051103,0.1553976833820343,1.57766592502594,0.0553394928574562,jumping
1783090624926844000,6.285843994140625,1.5026336366876958,-3.1939389566674827,6.937023953735828,0.07644884288311,1.3720669746398926,0.0623791515827178,jumping
1783090624936888000,6.29588818359375,1.3560666725449264,-3.077047145950794,7.309167998111247,0.1124158948659896,1.0727540254592896,0.0622374713420867,jumping
1783090624946932700,6.3059326171875,1.2663618517003952,-2.8003695546865464,7.806980741637945,0.246010422706604,0.7206560373306274,0.0419242829084396,jumping
1783090624956977000,6.315976806640625,1.2015863049291071,-2.4050018711119887,8.324307163929939,0.3900235295295715,0.4069258272647857,0.0237455479800701,jumping
1783090624967021800,6.326021728515625,0.8588949303355068,-1.884687080658972,8.74752965363562,0.4562996029853821,0.1432567238807678,0.0104651702567934,jumping
1783090624977065700,6.336065673828125,0.4273543288134038,-1.5750474232524632,9.413809204554555,0.3918780088424682,-0.1231222301721572,-0.0249828360974788,jumping
1783090624987111000,6.34611083984375,0.1279769760936498,-1.4182665236093104,10.092004234194755,0.2391332685947418,-0.3620429039001465,-0.0193237215280532,jumping
1783090624997155000,6.356155029296875,-0.3567447421263903,-0.6748588709548116,10.129451044535635,0.1417156457901001,-0.6057607531547546,-0.0626837164163589,jumping
1783090625007200000,6.366199951171875,0.783864750727266,-0.2518077922932804,10.111249032890797,0.1245339140295982,-0.779548704624176,-0.0689009428024292,jumping
1783090625017244000,6.376243896484375,1.3358493755549192,0.3823464355684816,9.232498697680237,0.1080228462815284,-0.8923322558403015,-0.0359182320535182,jumping
1783090625027288800,6.386288818359375,1.4074065452903508,1.1937829377017914,7.929248692435026,0.0900653749704361,-0.9035360813140868,0.0664839744567871,jumping
1783090625037333000,6.3963330078125,1.0082375697366892,1.988008923445642,5.769449662393331,0.0188348740339279,-0.8413658738136292,0.2075774520635604,jumping
1783090625047378000,6.4063779296875,0.4887868487671017,2.5050451306194064,2.887099743634462,-0.042202603071928,-0.7540193796157837,0.2829140722751617,jumping
1783090625057421800,6.416421875,1.154348168414086,2.6566537421911955,0.1593587873071432,0.0359475910663604,-0.5775455236434937,0.3032712638378143,jumping
1783090625067467000,6.426467041015625,2.1217112914487717,3.058654287908971,-2.6393518942564724,0.2057526856660843,-0.1692512780427932,0.5177747011184692,jumping
1783090625077511000,6.436510986328125,1.2198420925877989,4.153121549725532,-5.42403288142383,0.3469808995723724,0.5260097980499268,0.9103938937187196,jumping
1783090625087555800,6.446555908203125,-2.2207322221711276,4.3443817882061,-7.8373332098037,0.315922737121582,1.77206289768219,1.378796935081482,jumping
1783090625097600000,6.45660009765625,-7.192969722616672,4.171467938277125,-11.683369755041598,0.0905719175934791,3.1882643699645996,1.5290027856826782,jumping
1783090625107644700,6.466644775390625,-6.565861906135082,1.828166736535728,-13.6227105091691,-0.4515452086925506,3.8519229888916016,1.26362943649292,jumping
1783090625117688800,6.476688720703125,0.0106836353713646,0.2684229731380939,-12.226633751666546,-1.2950186729431152,4.1865153312683105,1.0476082563400269,jumping
1783090625127734000,6.486734130859375,3.0574472502067684,1.2916248877726495,-14.975750088977811,-1.631836175918579,4.1030755043029785,1.09083890914917,jumping
1783090625137778000,6.49677783203125,2.57509744874984,2.1788202491149304,-15.464633676117655,-1.035767674446106,3.306828260421753,1.1102168560028076,jumping
1783090625147822800,6.50682275390625,2.747307242062688,0.8659609962642192,-12.234442964112755,0.0822938680648803,2.169666051864624,0.9857580065727234,jumping
1783090625157867000,6.516866943359375,2.851657258853316,-0.3384757296599447,-8.926400366142392,1.0023419857025146,1.0463470220565796,0.639779806137085,jumping
1783090625167912000,6.526911865234375,0.4476728942207992,-1.773847994109988,-6.060322952270507,1.2975687980651855,0.1143611446022987,0.0153050739318132,jumping
1783090625177955800,6.536955810546875,-3.125205319920182,-4.592314931023121,-3.4923230605661866,1.041189432144165,-0.9121561646461488,-0.8118711709976196,jumping
1783090625188001000,6.5470009765625,-4.771950782683492,-6.440076302605867,-0.4258540072530508,0.6418569684028625,-1.9274650812149048,-1.4788150787353516,jumping
1783090625198045000,6.557044921875,-5.065979321721196,-4.996815769124031,0.2000432643949985,0.3237709105014801,-2.6715798377990723,-1.8823050260543823,jumping
1783090625208089900,6.56708984375,-4.203083265985549,-2.7258079424381254,-1.8227309752225875,-0.0262724757194519,-2.931318521499634,-2.120518922805786,jumping
1783090625218134000,6.577134033203125,-2.422084084946662,-1.103889024025947,-5.0990264357984065,-0.3790100216865539,-2.611546516418457,-2.1512866020202637,jumping
1783090625228179000,6.587178955078125,-0.0553622783956117,0.4732132859297096,-9.570879004141688,-0.615781307220459,-1.9915046691894531,-1.996405005455017,jumping
1783090625238222800,6.597222900390625,1.957855484983325,1.7574129921376704,-12.812283768600224,-0.6371062994003296,-1.2156600952148438,-1.7051180601119995,jumping
1783090625248267000,6.60726708984375,3.1060102055847643,2.5613182219833135,-14.468733463776111,-0.4008625447750091,-0.6802308559417725,-1.26643967628479,jumping
1783090625258312000,6.61731201171875,3.27471695921272,2.7454168982714413,-13.83856742876768,-0.0116945458576083,-0.2665250599384308,-0.7860967516899109,jumping
1783090625268355800,6.62735595703125,2.8000238099887964,2.507582540142536,-12.828563872271776,0.2999820709228515,0.0833754166960716,-0.3174527883529663,jumping
1783090625278401000,6.637401123046875,1.4364336100712418,2.07888483389616,-11.561122847032546,0.4084422290325165,0.3941652476787567,0.0359409898519516,jumping
1783090625288445000,6.64744482421875,-0.0565337515940889,1.298703447856754,-9.730454649069904,0.2498253434896469,0.6072179079055786,0.2477843463420868,jumping
1783090625298489900,6.65748974609375,-1.5888628903761506,0.6467481903664767,-7.905328303143381,-0.1099528074264526,0.8363898396492004,0.3752762675285339,jumping
1783090625308534000,6.667533935546875,-2.696841667933762,0.5227485934711993,-7.433956407296657,-0.470536470413208,1.086795449256897,0.3887804746627807,jumping
1783090625318579000,6.677578857421875,-2.6009493906259533,0.4641968896508217,-8.089419965168833,-0.6973951458930969,1.2601675987243652,0.3497305512428283,jumping
1783090625328622800,6.687622802734375,-1.6304007694229483,0.9565255026780068,-9.43610754560232,-0.8084716796875,1.3655695915222168,0.3641064465045929,jumping
1783090625338667800,6.697667724609375,-0.1263042205758392,1.7428155808560548,-11.39029749381542,-0.7858971357345581,1.42181134223938,0.4722211956977844,jumping
1783090625348712000,6.7077119140625,2.0870627335242924,2.3762962933704257,-13.213409577310085,-0.5840810537338257,1.4701881408691406,0.6443223357200623,jumping
1783090625358757000,6.717757080078125,4.258498279215395,2.9239424506023526,-13.15623632223606,-0.3575139045715332,1.2745473384857178,0.8608357310295105,jumping
1783090625368800800,6.72780078125,5.336996987527608,3.183093445265293,-10.593872390592098,-0.1641387492418289,0.972750961780548,1.0151818990707395,jumping
1783090625378846000,6.737845947265625,4.368002317768335,3.076080931267142,-7.492500366201996,0.0416367761790752,0.680233895778656,1.0951811075210571,jumping
1783090625388889900,6.747889892578125,2.584053200882673,3.0078412155166268,-4.223395693913102,0.2237281948328018,0.4380265772342682,1.150774598121643,jumping
1783090625398934800,6.757934814453125,1.199569704409689,2.9374036974608897,-0.5369681113511323,0.2393910437822342,0.2308443486690521,1.1908764839172363,jumping
1783090625408979000,6.76797900390625,0.2816081064689904,2.3403069883614775,2.858687303620577,0.1091183498501777,0.0786050260066986,1.155500888824463,jumping
1783090625419024000,6.77802392578125,-0.4060529629137366,0.9009045916125178,5.99517506505549,-0.120039202272892,-0.1262083053588867,1.051752686500549,jumping
1783090625429067800,6.78806787109375,-1.0103084577266126,-0.7399228792786597,8.836208638563752,-0.3196465969085693,-0.3794778287410736,0.8784893155097961,jumping
1783090625439113000,6.798113037109375,-1.7161062914982437,-2.4062507021293045,10.964735162985324,-0.4324013590812683,-0.7607210278511047,0.6203719973564148,jumping
1783090625449157000,6.8081572265625,-2.7206811009436844,-3.4460324340343473,12.57178223708868,-0.4408509731292724,-1.1425492763519287,0.2968012392520904,jumping
1783090625459201800,6.818201904296875,-3.950806248745322,-3.6692715728387233,13.35071844537258,-0.3422639369964599,-1.3939188718795776,-0.0011987620964646,jumping
1783090625469246000,6.828245849609375,-4.522151261472702,-2.944209578083455,14.44490133728981,-0.2294995784759521,-1.6468013525009155,-0.169666439294815,jumping
1783090625479291000,6.838290771484375,-3.88542279920876,-1.9536919355630873,15.722397308075427,-0.145726129412651,-1.8218241930007937,-0.2393459230661392,jumping
1783090625489334800,6.848334716796875,-2.9201860206782815,-0.9780772631421684,15.967481491202117,-0.1350924670696258,-1.8395369052886963,-0.2299209088087082,jumping
1783090625499380000,6.8583798828125,-1.951876118312776,-0.0209808287084102,15.422924532157182,-0.1777467131614685,-1.6486181020736694,-0.1427034437656402,jumping
1783090625509423900,6.868423828125,-1.0186712124023587,0.2464794368773698,14.057979410499334,-0.1914510875940323,-1.2340468168258667,-0.0036242250353097,jumping
1783090625519469000,6.878468994140625,-0.3297337298756465,0.1200631342291831,12.000199323952195,-0.1856081187725067,-0.6308519840240479,0.144221156835556,jumping
1783090625529513000,6.888512939453125,-0.0002719853417947,-0.2507595984145999,9.794572024193403,-0.2383725494146347,0.0496657863259315,0.2757311165332794,jumping
1783090625539558000,6.898557861328125,0.2840701126683503,-0.7681076480165123,8.010175163540243,-0.3601261675357818,0.6027572154998779,0.3780348598957062,jumping
1783090625549601800,6.908601806640625,0.7399431914143264,-1.1825497421562672,6.556357580208778,-0.4717106819152832,1.0449177026748655,0.4169846177101135,jumping
1783090625559646700,6.918646728515625,1.0050658078327774,-1.4095692762821912,5.039105927842855,-0.4937374293804168,1.2991344928741455,0.4297403693199157,jumping
1783090625569691000,6.92869091796875,1.038099112580344,-1.5472250580862164,4.367969584542513,-0.3740117251873016,1.36211359500885,0.4134335517883301,jumping
1783090625579736000,6.938736083984375,0.8117771322645246,-1.939066905622184,4.565522785687446,-0.1817437410354614,1.238091230392456,0.3377347886562347,jumping
1783090625589780000,6.948780029296875,0.4104282188558951,-2.626397720137238,5.517607237178087,-0.0159430913627147,1.004644751548767,0.1762329190969467,jumping
1783090625599825000,6.958824951171875,-0.0467806750711053,-3.5377395346119997,6.887804288014769,0.0649560168385505,0.7267721891403198,-0.0447751022875309,jumping
1783090625609869000,6.968869140625,-0.528780238318257,-4.177131955388188,8.48281138023436,0.0781835466623306,0.465404063463211,-0.264344185590744,jumping
1783090625619913000,6.978912841796875,-0.9009757571525872,-4.103311224634945,9.678514033952355,0.0478456132113933,0.2342270314693451,-0.4311241209506988,jumping
1783090625629958000,6.9889580078125,-0.9734466807320712,-3.582066459855437,10.336658209210634,0.0178884305059909,0.0583627559244632,-0.5639780759811401,jumping
1783090625640002000,6.999001953125,-0.9322690863650293,-2.9600214797213673,10.588231754356622,0.0304990299046039,-0.0478848554193973,-0.652235746383667,jumping
1783090625650046700,7.009046630859375,-0.927701559253782,-2.109681246437132,10.50731405107975,0.0245585273951292,-0.1398763954639434,-0.6851310729980469,jumping
1783090625660091000,7.0190908203125,-0.5999658347949385,-1.1831883323207495,10.79942535831928,-0.0261240899562835,-0.3424278795719147,-0.6560257077217102,jumping
1783090625670136000,7.029135986328125,0.0194465866121463,-0.6552624823421239,11.244130781036615,-0.0831808596849441,-0.6064969897270203,-0.5741081833839417,jumping
1783090625680179700,7.0391796875,-0.0887027493962086,-0.3177195034876465,10.736145018541812,-0.0657275691628456,-0.7801084518432617,-0.4443763196468353,jumping
1783090625690225000,7.049224853515625,-1.1239457966919988,0.1623988856554031,9.402124027457832,0.0515518076717853,-0.9901652336120604,-0.4084676206111908,jumping
1783090625700269000,7.05926904296875,-0.921340938180685,0.067186699566245,8.52387930368185,0.1015587747097015,-1.1668685674667358,-0.3560576736927032,jumping
1783090625710313700,7.069313720703125,-0.0671092138832435,0.3438970240563154,7.235436991468071,0.0514605827629566,-1.3357566595077517,-0.291175901889801,jumping
1783090625720358000,7.07935791015625,0.815789875037223,1.427208685608208,5.249280125629902,-0.1393876671791076,-1.18144690990448,-0.0388472564518451,jumping
1783090625730403000,7.089403076171875,0.7420306652128696,3.3306910676300525,1.5677192723214626,-0.3089390695095062,-1.0318667888641355,0.293310135602951,jumping
1783090625740446700,7.09944677734375,3.357537281240522,4.815300971849262,-0.3441378470748663,-0.4209689199924469,-0.9373447895050048,0.7015924453735352,jumping
1783090625750492000,7.109491943359375,6.563319820436835,6.194550220930576,-2.975810877266526,-0.5151428580284119,-0.4544681906700134,1.1943707466125488,jumping
1783090625760536000,7.1195361328125,6.779439190363884,6.640114890825748,-7.406074713158607,-0.5235803127288818,0.2409888803958892,1.7695168256759644,jumping
1783090625770581000,7.1295810546875,4.4515649825960395,6.369122359460592,-9.174045924189686,-0.4064146280288696,1.1366188526153564,2.110889673233032,jumping
1783090625780625000,7.139625,-1.3335223939120768,2.8933251940205693,-9.94246132298112,-0.1052537113428115,1.7954678535461426,1.713999629020691,jumping
1783090625790669800,7.149669921875,-7.913616239017248,-3.6568557433798903,-8.076480404096841,0.0131632182747125,1.8989453315734863,0.5922278761863708,jumping
1783090625800714000,7.1597138671875,-12.368411874097584,-8.716019247606397,-6.826006880271434,-0.1978148072957992,1.4963812828063965,-0.506050169467926,jumping
1783090625810758700,7.169758544921875,-10.006183561307193,-8.343622689774632,-7.905863725194335,-0.5263932943344116,0.891796350479126,-1.0259274244308472,jumping
1783090625820802800,7.179802734375,-2.8800059859812257,-2.671582431253791,-10.180262363362312,-0.6940286755561829,0.579099178314209,-0.989868938922882,jumping
1783090625830847700,7.18984765625,2.508479196721315,3.3575150694087146,-13.199015141254662,-0.4362950026988983,0.3539927303791046,-0.6813387274742126,jumping
1783090625840891600,7.1998916015625,4.304060006950795,4.879255557626485,-12.832670723068713,0.2458201646804809,0.1163722053170204,-0.5168693661689758,jumping
1783090625850936600,7.2099365234375,2.2046467642888428,1.5119389329105617,-10.549432360363006,0.9645618200302124,-0.1791750788688659,-0.8116423487663269,jumping
1783090625860980700,7.219980712890625,-0.6099134475093334,-3.4418878815755245,-6.756079942086338,1.2987089157104492,-0.5313382148742676,-1.2047598361968994,jumping
1783090625871025700,7.230025634765625,-2.285640309280902,-5.40463727608025,-3.604670505851507,1.172593355178833,-0.8205472230911255,-1.5330281257629397,jumping
1783090625881069600,7.240069580078125,-2.599070152750611,-6.120239368572831,-2.317365088713169,0.7719687223434448,-1.0756900310516355,-1.7897619009017944,jumping
1783090625891114800,7.25011474609375,-2.1383102518111468,-5.420768326669931,-2.8607933359891176,0.2298783659934997,-1.316654086112976,-1.802720546722412,jumping
1783090625901158700,7.26015869140625,-1.22231082078889,-3.0780992853522298,-4.811616438117623,-0.2879666686058044,-1.3870537281036377,-1.5538617372512815,jumping
1783090625911203600,7.27020361328125,-0.2993799100030213,-0.5829477722376585,-7.810537557336688,-0.5309363603591919,-1.243065357208252,-1.1687921285629272,jumping
1783090625921247700,7.280247802734375,-0.2893393583081662,1.280909578621387,-11.061863996350764,-0.5055005550384521,-1.0355441570281982,-0.7360585331916809,jumping
1783090625931292700,7.290292724609375,-0.0906645327221602,2.846158953697979,-13.104176464653014,-0.3984572291374206,-0.9353002309799194,-0.2258857935667038,jumping
1783090625941336600,7.300336669921875,0.4297581020195037,4.07014253000468,-13.995393482726811,-0.2196879982948303,-0.8447756767272949,0.2959566116333008,jumping
1783090625951381800,7.3103818359375,0.6405660676654428,5.256082206860184,-14.82036312791109,0.0872762128710746,-0.5963384509086609,0.7056573033332825,jumping
1783090625961425700,7.32042578125,0.0446191861882805,5.92143002988696,-15.16289178622365,0.4159608781337738,-0.1894212514162063,0.998198628425598,jumping
1783090625971470600,7.330470703125,-0.7855638827953487,5.753510334983468,-14.193318439793586,0.5755828619003296,0.2615355849266052,1.12916100025177,jumping
1783090625981514800,7.3405146484375,-1.70165018838346,4.606142380845546,-12.326612713766098,0.4250452816486358,0.623275101184845,1.048174500465393,jumping
1783090625991559700,7.3505595703125,-2.9403409199565647,3.3158120629280803,-10.4036736438632,0.0527922622859478,0.8403809666633606,0.829818606376648,jumping
1783090626001603600,7.360603515625,-3.9287645128071302,2.4953461589038373,-9.403326973506807,-0.3230303823947906,1.033646821975708,0.4393259286880493,jumping
1783090626011648800,7.370648681640625,-4.042533515328168,2.3642042890384793,-10.040888963985443,-0.5736371874809265,1.3039616346359253,-0.0236421898007392,jumping
1783090626021692700,7.380692626953125,-3.3257670552313328,2.9570602918282147,-11.489766752827167,-0.6199357509613037,1.4968879222869873,-0.3922359347343445,jumping
1783090626031736600,7.390736572265625,-1.8385759023472663,3.4909435889065263,-11.254328349924087,-0.4373655021190643,1.561194658279419,-0.6425831913948059,jumping
1783090626041781800,7.40078173828125,-0.583592609479837,3.826253401881456,-8.96858998709619,-0.2321273982524871,1.5889288187026978,-0.8291030526161194,jumping
1783090626051825700,7.41082568359375,-0.2742651415613479,3.7789319709971543,-6.141814071521162,-0.09168142080307,1.54687237739563,-0.9223340153694152,jumping
1783090626061870600,7.42087060546875,0.0835675967311486,3.654803194764256,-2.6764503295511006,0.0104505326598882,1.414453387260437,-0.8601406812667847,jumping
1783090626071914800,7.430914794921875,1.1572834181483835,3.5192592905476685,0.8791589160114526,0.0063521042466163,1.1025010347366333,-0.6671766638755798,jumping
1783090626081959700,7.440959716796875,2.640092191229761,3.061463500110805,3.736126556232571,-0.1456973403692245,0.6068981289863586,-0.4028052091598511,jumping
1783090626092003600,7.451003662109375,4.101526971566677,1.6839467739105225,5.360079172429442,-0.3605072796344757,-0.0526895374059677,-0.1477714776992797,jumping
1783090626102048500,7.461048583984375,4.793823007273674,-0.195445122949779,5.97836889168322,-0.5312332510948181,-0.6857170462608337,0.0580488070845603,jumping
1783090626112092700,7.4710927734375,4.0032378622502085,-1.6077417783692478,5.742749871516227,-0.5590002536773682,-1.2210711240768433,0.2271148711442947,jumping
1783090626122137600,7.4811376953125,2.31798307448104,-2.558622114767134,5.867291612464189,-0.3296664357185364,-1.6976726055145264,0.3488772511482239,jumping
1783090626132181800,7.491181640625,0.6752812610853463,-3.2662437298998235,6.813453103646635,0.1390004158020019,-2.0748465061187744,0.4016717374324798,jumping
1783090626142226700,7.501226806640625,-0.3835717030471191,-3.352626420584321,8.304753737676144,0.6714107990264893,-2.288872718811035,0.3636836111545563,jumping
1783090626152270600,7.5112705078125,-0.8299082706302404,-2.954436080804467,9.969009138166903,1.0937520265579224,-2.240650177001953,0.2412701547145843,jumping
1783090626162315500,7.5213154296875,-0.6433589132543653,-2.15454826990664,11.821716733980178,1.302582025527954,-2.114238739013672,0.163304254412651,jumping
1783090626172359700,7.531359619140625,0.2306933272678405,-1.1994652211219072,13.914423172479868,1.2409181594848633,-1.8831127882003784,0.1725825369358062,jumping
1783090626182404900,7.54140478515625,0.9910697234451772,-0.4107163516148924,15.13519597004652,0.8857466578483582,-1.567063808441162,0.2643001973628998,jumping
1783090626192448500,7.551448486328125,1.4652172214850785,-0.5977428980484605,15.40383054010868,0.3587737381458282,-1.1637353897094729,0.3578566312789917,jumping
1783090626202493700,7.56149365234375,1.5681538643464443,-1.4468205640509724,14.577662625050545,-0.1498937308788299,-0.6019537448883057,0.3956471681594848,jumping
1783090626212537900,7.571537841796875,1.0780853052057324,-1.8886901788204904,12.660215722823144,-0.4891186952590942,0.0026824898086488,0.409523069858551,jumping
1783090626222582500,7.58158251953125,0.9360542309269309,-2.102227715560794,10.791308687359091,-0.6521912813186646,0.489358127117157,0.4025000333786011,jumping
1783090626232626700,7.591626708984375,1.0086843636561185,-2.373870819789171,8.834223602226375,-0.6836873292922974,0.8348871469497681,0.3857899904251098,jumping
