time,seconds_elapsed,accel_x,accel_y,accel_z,gyro_x,gyro_y,gyro_z,label
1783087061211501800,0.053501708984375,0.1534199901090003,-0.6515308945983648,-0.993984734109044,-0.339271992444992,0.2812952101230621,-0.7019702196121216,jumping
1783087061221547000,0.063547119140625,-0.0402689276900608,-0.6184425717279315,-1.324896604385972,-0.164753183722496,0.2751787304878235,-0.7102382779121399,jumping
1783087061231591000,0.0735908203125,-0.2908246649624779,-0.6403767556384206,-1.2819669787198305,0.0400150977075099,0.2754826843738556,-0.7037162184715271,jumping
1783087061241634800,0.083634765625,-0.2801220691623166,-0.6948164940953254,-0.8213070310235023,0.2070919722318649,0.2455455511808395,-0.7068555951118469,jumping
1783087061251680000,0.093679931640625,-0.04707618741896,-0.6998562418282032,-0.2904699697732925,0.3155611455440521,0.190968245267868,-0.7074529528617859,jumping
1783087061261724000,0.103723876953125,0.0923078155503142,-0.6982905999466776,0.0025035072535276,0.3486652970314026,0.1051657199859619,-0.6801151037216187,jumping
1783087061271769000,0.11376904296875,0.2394023380979895,-0.6884305924504995,0.1314893681287765,0.3233586847782135,-0.0160692706704139,-0.6402562856674194,jumping
1783087061281813000,0.12381298828125,0.4347617555256933,-0.6897717779263853,0.0760059658378362,0.2789944112300873,-0.1151817440986633,-0.6133900880813599,jumping
1783087061291858000,0.13385791015625,0.5515552204344422,-0.6444196012884378,-0.0612146394193172,0.2411905527114868,-0.1818797886371612,-0.5922700762748718,jumping
1783087061301902000,0.143902099609375,0.4440876926777884,-0.6142895437017083,-0.1534784970968961,0.2263887077569961,-0.2215302586555481,-0.5760974884033203,jumping
1783087061311946000,0.153946044921875,0.3451363931255415,-0.6223930629193782,-0.2178723510742187,0.2316638827323913,-0.2482505142688751,-0.5688772797584534,jumping
1783087061321991000,0.163990966796875,0.3031649084344506,-0.5612795457869768,-0.205730662381649,0.2505667209625244,-0.2514881193637848,-0.5581324696540833,jumping
1783087061332034800,0.174034912109375,0.1478998567143455,-0.4467760915115475,-0.08495090431571,0.2522494494915008,-0.2415883690118789,-0.5431776642799377,jumping
1783087061342080000,0.184080078125,-0.0687022917609661,-0.3986290234580635,0.0324625921875238,0.2217101752758026,-0.2215725779533386,-0.5185061693191528,jumping
1783087061352124000,0.1941240234375,-0.2110502317029051,-0.328399595195055,0.0493564438432455,0.183181881904602,-0.2241932302713394,-0.4983780980110168,jumping
1783087061362169000,0.204169189453125,-0.0535324143536388,-0.2894935259565711,0.0134188690215349,0.186278611421585,-0.2826006114482879,-0.4892187118530273,jumping
1783087061372213000,0.214212890625,0.1680635055546648,-0.2192059377655386,-0.2016881089925765,0.2443430721759796,-0.345719575881958,-0.4753108620643616,jumping
1783087061382257000,0.2242568359375,0.3066595090845599,-0.1062318850144743,-0.363420639693737,0.3009813129901886,-0.4077850878238678,-0.4492595195770263,jumping
1783087061392302000,0.234302001953125,0.3818681505322456,0.0932313875354826,-0.3126648504465818,0.3191598653793335,-0.4629028141498565,-0.403536856174469,jumping
1783087061402346000,0.244345947265625,0.4112863335225731,0.3070357585184275,-0.1818786621510982,0.295584499835968,-0.5062177777290344,-0.3417661786079407,jumping
1783087061412391000,0.254390869140625,0.3796903681017458,0.4639043364450335,0.1197936696380376,0.241388738155365,-0.5494536757469177,-0.2672212123870849,jumping
1783087061422435000,0.26443505859375,0.4240570773662999,0.5548378223016858,0.4074287082463502,0.1969088762998581,-0.6030007600784302,-0.2009569853544235,jumping
1783087061432479000,0.27447900390625,0.3517692187361419,0.5614566559195519,0.4235433922231197,0.1921553164720535,-0.6453498005867004,-0.1346727311611175,jumping
1783087061442524000,0.28452392578125,0.1717277088843286,0.5076506853215396,0.3723375211209058,0.206969141960144,-0.6576352715492249,-0.0746000707149505,jumping
1783087061452568000,0.294568115234375,0.0391555870201438,0.4643742920443415,0.4211725714385509,0.2002972662448883,-0.6593141555786133,-0.0223008058965206,jumping
1783087061462613000,0.304613037109375,0.0689580931529402,0.3791210437811911,0.6433259608328342,0.15034781396389,-0.6784558892250061,0.017589883878827,jumping
1783087061472657000,0.314656982421875,0.138170380262658,0.3647435588605702,0.7699374937921762,0.0571687445044517,-0.7002137303352356,0.0653070732951164,jumping
1783087061482702000,0.3247021484375,0.137265832638368,0.3953511708311736,0.8066904766499996,-0.0487824566662311,-0.7170640826225281,0.1133182793855667,jumping
1783087061492746000,0.33474609375,0.2991564765106886,0.3710394441343844,0.7113339136540889,-0.1233470737934112,-0.7425720691680908,0.1429246664047241,jumping
1783087061502790000,0.344789794921875,0.3477827063832431,0.3702842418529093,0.3735176708161831,-0.1101236790418624,-0.7723557949066162,0.1772528141736984,jumping
1783087061512834800,0.354834716796875,0.303903597972542,0.370418974148482,-0.0245744692862033,-0.0187246575951576,-0.772596538066864,0.2176232486963272,jumping
1783087061522879000,0.36487890625,0.0938247503187507,0.3518834927655756,-0.2663350609481335,0.106340579688549,-0.7270932197570801,0.2550598382949829,jumping
1783087061532924000,0.374923828125,-0.14135332114771,0.3455423070453107,-0.1490834770083427,0.2067752182483673,-0.6419894099235535,0.2533698379993438,jumping
1783087061542967800,0.3849677734375,-0.2778359675191342,0.2948473080746829,0.1320551853179931,0.222952052950859,-0.5321369171142578,0.2182123959064483,jumping
1783087061553012000,0.395011962890625,-0.3271788212284445,0.3003448825776577,0.4950970548272133,0.1428837329149246,-0.4104640781879425,0.1756926476955413,jumping
1783087061563057000,0.405056884765625,-0.2615584941960871,0.4097400539286434,0.7013526178658008,0.0092915827408432,-0.2908439338207245,0.1420944631099701,jumping
1783087061573100800,0.415100830078125,-0.1930593968570232,0.4095009844757616,0.7368260823071002,-0.128183513879776,-0.2042343318462371,0.1075829416513443,jumping
1783087061583146000,0.42514599609375,-0.0945136824309825,0.3549770748667418,0.5870435171186924,-0.2501943707466125,-0.1600631326436996,0.0789068266749382,jumping
1783087061593190000,0.43518994140625,-0.0421240083716809,0.3054116644479334,0.3248842805504798,-0.3419638276100158,-0.1343681365251541,0.0492372512817382,jumping
1783087061603234800,0.44523486328125,-0.1200409223973751,0.2632714355938136,0.0800602096647024,-0.3965559601783752,-0.0976439490914344,0.0150822112336754,jumping
1783087061613279000,0.455279052734375,-0.165568601732701,0.2706045549608767,-0.0284609553307294,-0.4223268926143646,-0.0548764578998088,-0.0195978805422782,jumping
1783087061623323000,0.465322998046875,-0.1927124831154942,0.235077314505726,0.0010527239233255,-0.4234747290611267,-0.0456163808703422,-0.0435655303299427,jumping
1783087061633367800,0.475367919921875,-0.2369115441955626,0.151453421010077,-0.0584627103626728,-0.3833711445331573,-0.0858851373195648,-0.0535658486187458,jumping
1783087061643412000,0.485411865234375,-0.2401018646694719,0.1174155423298478,-0.2104272957652807,-0.2743935286998749,-0.1456648558378219,-0.0702265873551368,jumping
1783087061653457000,0.495456787109375,-0.1099456448405981,0.0666004241108894,-0.3099035690397024,-0.1194612979888916,-0.1882973462343216,-0.097372755408287,jumping
1783087061663500800,0.505500732421875,0.0537324669703841,-0.0160895495355129,-0.2175245605498552,0.0168283674865961,-0.1942247450351715,-0.135034903883934,jumping
1783087061673545700,0.515545654296875,0.2174969418905675,0.0322404738694429,0.013431728503108,0.069684661924839,-0.15018330514431,-0.1635085344314575,jumping
1783087061683590000,0.52558984375,0.2563600487701594,0.297166252541542,0.2450608022511005,-0.0044854381121695,-0.0627602487802505,-0.1680553406476974,jumping
1783087061693633800,0.5356337890625,0.2700434139467775,0.6624322278410196,0.445837057095766,-0.1890486180782318,0.0005718865431845,-0.1339356303215026,jumping
1783087061703678700,0.5456787109375,0.3718684423044324,0.9639911623835564,0.6213134509891272,-0.383184015750885,0.0021122591570019,-0.0579101145267486,jumping
1783087061713723000,0.555722900390625,0.6078795305289327,1.034408806695044,0.5341635753244162,-0.459652304649353,-0.0270476881414651,0.0386937260627746,jumping
1783087061723767800,0.565767822265625,0.8496521048896014,0.9179004423379896,0.2469517305642366,-0.4104610681533813,-0.0840587764978408,0.1293234974145889,jumping
1783087061733812000,0.57581201171875,1.013264896379411,0.6864703982934355,0.0800046800851821,-0.2787359356880188,-0.1840492486953735,0.2050429731607437,jumping
1783087061743857000,0.58585693359375,1.0014974478267131,0.569563390007615,0.0891489405274391,-0.1336381584405899,-0.2903522551059723,0.2731375992298126,jumping
1783087061753900800,0.59590087890625,0.8483553430773317,0.626759441435337,0.4497486775815487,-0.03865472599864,-0.3788108825683594,0.3409403562545776,jumping
1783087061763945000,0.605945068359375,0.8441374331213534,0.7836804802015424,1.222190847671032,-0.0229742974042892,-0.4675002992153168,0.4286760687828064,jumping
1783087061773990000,0.615989990234375,1.0364365131303668,0.902795519925654,2.226386594671011,-0.0590805485844612,-0.602935254573822,0.548632025718689,jumping
1783087061784033800,0.62603369140625,1.118040006714314,0.8862199404388665,3.214831814831495,-0.0954531952738761,-0.8509439826011658,0.6692662835121155,jumping
1783087061794078700,0.63607861328125,1.018047892872244,0.565072508329153,4.000091380918025,-0.0705373883247375,-1.1937402486801147,0.7487636208534241,jumping
1783087061804123000,0.646122802734375,0.8118092809684574,0.1694061340689659,4.4788276680529115,0.0294195692986249,-1.4850714206695557,0.8069904446601868,jumping
1783087061814166800,0.656166748046875,0.770686704724282,-0.1467465584933757,5.316917491573095,0.0851745009422302,-1.8239493370056152,0.8596602082252502,jumping
1783087061824211700,0.666211669921875,0.8420074353553354,-0.721289198218286,5.774264369198679,0.0615996606647968,-2.141418695449829,0.8984501957893372,jumping
1783087061834256000,0.676255859375,0.4467740456849336,-1.9070996957361697,5.74123479077816,0.0031878408044576,-2.348258256912231,0.8491929769515991,jumping
1783087061844300800,0.68630078125,-0.8234428740084171,-3.288824102759361,5.232551693668961,-0.1009673252701759,-2.3139848709106445,0.6633754372596741,jumping
1783087061854345000,0.696344970703125,-2.5242194944277405,-4.156839401204884,4.554277753573656,-0.2818418741226196,-2.0746099948883057,0.3109378814697265,jumping
1783087061864390000,0.706389892578125,-2.6308357025846836,-3.935434784351289,3.3243957668781277,-0.4266139566898346,-1.680707335472107,-0.057752788066864,jumping
1783087061874433800,0.716433837890625,-1.2591145109206436,-2.829605878303945,1.74948745983541,-0.4624906480312347,-1.1824100017547607,-0.1838721483945846,jumping
1783087061884478000,0.72647802734375,-0.3620744857817888,-1.8216960792168977,-0.2521300099849701,-0.4382928907871246,-0.5036812424659729,-0.075844757258892,jumping
1783087061894523000,0.73652294921875,-0.0568672578647732,-1.4234791436910628,-1.9168653029471632,-0.4506927132606506,0.4794406294822693,0.1015871092677116,jumping
1783087061904566800,0.74656689453125,0.2794248441457748,-1.8636156510576605,-0.5611433521866798,-0.4848362803459167,1.1467936038970947,0.1749926209449768,jumping
1783087061914611700,0.75661181640625,0.3033060704708099,-2.041724439281225,1.043972461593151,-0.4089366793632507,1.5534555912017822,0.2060608863830566,jumping
1783087061924655900,0.76665576171875,1.101774662220478,-1.25941057125777,2.596938985940814,-0.3787414729595184,1.589181900024414,0.3973496258258819,jumping
1783087061934701000,0.776701171875,1.3925450762450695,-1.2306769364655017,3.3502567688435314,-0.3263206481933594,1.2128945589065552,0.5023351311683655,jumping
1783087061944744700,0.78674462890625,0.8212766358852386,-2.6625948226779697,2.0807097112357615,0.1038150191307067,0.5659059286117554,0.4830375611782074,jumping
1783087061954788900,0.796788818359375,-0.8199240522325039,-4.406911894138157,-0.7434568986237049,0.8420099020004272,0.0621968992054462,0.3167702853679657,jumping
1783087061964834000,0.806833984375,-2.560171390035748,-3.8844054388597606,-3.0876264076322317,1.4015188217163086,-0.0424256473779678,0.1041024848818779,jumping
1783087061974878000,0.8168779296875,-2.980749502712488,-2.638751005753875,-3.668998893377184,1.4167463779449463,0.1570750325918197,-0.1617912948131561,jumping
1783087061984923000,0.8269228515625,-1.796655453723669,-1.5393600237995386,-3.1078380055338144,1.031893968582153,0.2966260015964508,-0.3749677538871765,jumping
1783087061994966800,0.836966796875,-0.9614014381513,-0.8714037718400358,-3.263124428835511,0.5599259734153748,0.2563589811325073,-0.5720105767250061,jumping
1783087062005011000,0.847010986328125,-1.0034396679356694,-0.7364326990753411,-4.411283241090178,0.2218105345964431,0.0177235007286071,-0.747901439666748,jumping
1783087062015056000,0.857055908203125,-1.054645831298828,-0.4141834432035684,-5.727401495736837,0.1847540736198425,-0.526297390460968,-0.8414964079856873,jumping
1783087062025099800,0.867099853515625,-0.5396686024814844,0.2922717584982514,-8.349304242542386,0.3877727091312408,-1.1018215417861938,-0.7460732460021973,jumping
1783087062035144700,0.877144775390625,-0.6807955675274133,0.741944155973196,-11.9931032282114,0.6310986280441284,-1.4516558647155762,-0.4737133085727691,jumping
1783087062045188900,0.88718896484375,-1.277593585941195,1.5499886775806546,-15.547242985743283,0.7851963639259338,-1.317100167274475,-0.1490641087293625,jumping
1783087062055234000,0.897234130859375,-2.097674290040135,2.3538386701077223,-17.504637282955645,0.7948641777038574,-0.7551775574684143,0.1479280292987823,jumping
1783087062065277700,0.907277587890625,-3.499843811459839,2.194250457958877,-16.953274151027202,0.6366623044013977,-0.0963804721832275,0.335598349571228,jumping
1783087062075321900,0.91732177734375,-3.9397605385959142,1.5934055022418498,-16.024291173660753,0.3672332465648651,0.5734668374061584,0.4162991940975189,jumping
1783087062085367000,0.927366943359375,-4.068327589537203,1.1167280473329126,-16.06059232109785,0.0869376882910728,1.2421945333480835,0.4404295682907104,jumping
1783087062095411000,0.937410888671875,-3.9573268826857206,0.9523311197280884,-16.299935330224038,-0.1113566383719444,1.8693996667861936,0.4419918358325958,jumping
1783087062105455900,0.947455810546875,-3.489385545809567,0.9660511636532844,-15.746644445103406,-0.2363465130329132,2.43863296508789,0.4144339859485626,jumping
1783087062115500000,0.9575,-3.249431419047713,1.0773301029242577,-14.86765796304941,-0.356080561876297,2.9095420837402344,0.3350018560886383,jumping
1783087062125544000,0.9675439453125,-3.226493611052632,1.6219957830406724,-13.986362619531151,-0.4476578831672668,3.323904514312744,0.2305729240179062,jumping
1783087062135588900,0.9775888671875,-3.3692093065947293,2.8540359706833955,-12.425808416533467,-0.5415816903114319,3.74493145942688,0.2171040922403335,jumping
1783087062145632800,0.9876328125,-3.401170086739957,4.3295466226458545,-9.696413847780228,-0.6997513771057129,4.0657267570495605,0.2907620370388031,jumping
1783087062155677700,0.997677734375,-3.131578362083435,5.67506515929997,-6.288456585118174,-0.8398653268814087,4.044247150421143,0.4717564284801483,jumping
1783087062165721900,1.007721923828125,-2.0097500690020618,6.244757144123316,-2.5721914981752634,-0.9803664684295654,3.2568492889404297,0.7137125730514526,jumping
1783087062175767000,1.01776708984375,0.0735156651257537,5.262783750325441,0.1021826096236705,-0.8756815791130066,2.0610649585723877,0.968260943889618,jumping
1783087062185810700,1.027810791015625,1.146327724369988,4.377889505532384,2.283667986294627,-0.4631310403347015,0.6731069087982178,1.2057836055755615,jumping
1783087062195854800,1.037854736328125,0.9736769823566078,1.117890222980082,3.617167583853006,0.2030767053365707,-0.3835985064506531,1.1150754690170288,jumping
1783087062205900000,1.047900146484375,0.7141258824601769,-2.259311543673277,4.9754953331977125,0.6659159660339355,-1.0487101078033447,0.7546858191490173,jumping
1783087062215944000,1.05794384765625,0.2996386522707529,-2.635633165994286,7.469138195315003,0.7698933482170105,-1.369978666305542,0.3121238648891449,jumping
1783087062225988900,1.06798876953125,0.542698910088092,-1.094129992686212,10.25676926445961,0.572526752948761,-1.4961528778076172,-0.0303077828139066,jumping
1783087062236033000,1.078032958984375,0.536887593460828,1.2840502147346735,14.345116436457634,0.3996587097644806,-1.8679966926574707,-0.0675523579120636,jumping
1783087062246077700,1.08807763671875,0.1057815108984708,2.82095173946619,17.57876401091814,0.2382101565599441,-2.370173454284668,0.0585776045918464,jumping
1783087062256121900,1.098121826171875,-1.0526952086877075,2.5281173786491156,18.07640490500927,0.1075751781463623,-2.755458116531372,0.1227001398801803,jumping
1783087062266166000,1.108166015625,-1.7822569260150194,1.166479189582169,17.1505573030591,-0.0302580539137125,-2.9316530227661133,0.0673583149909973,jumping
1783087062276210700,1.118210693359375,-1.1881773727796971,-0.3010115297928452,15.770831960898636,-0.1801261007785797,-2.9079749584198,-0.1149988770484924,jumping
1783087062286254800,1.1282548828125,0.038595249723643,-1.4674734759792685,13.76919286376834,-0.2489919811487198,-2.7207086086273193,-0.3078479766845703,jumping
1783087062296300000,1.138300048828125,1.178423748267442,-2.236873209632933,11.663026055192947,-0.1961489170789718,-2.4182817935943604,-0.4637477695941925,jumping
1783087062306343700,1.14834375,1.9000199666082855,-2.902042753483355,9.67697440329492,-0.04759007319808,-1.991259217262268,-0.5650613903999329,jumping
1783087062316388900,1.158388916015625,2.089987388799339,-3.0749276695787904,7.5498051387012,0.1082486510276794,-1.3323862552642822,-0.5916509032249451,jumping
1783087062326433000,1.16843310546875,2.0782512121677397,-2.4818551014289256,6.008313363569974,0.1609009355306625,-0.546086311340332,-0.5773422718048096,jumping
1783087062336477000,1.178476806640625,2.176064812926948,-1.7387734658583998,5.5602229745894665,0.1024518758058548,0.1755292415618896,-0.5011546611785889,jumping
1783087062346521900,1.18852197265625,2.4924188732802866,-1.5094924165412782,5.859723807558417,-0.0021461737342178,0.7390794157981873,-0.3735708594322204,jumping
1783087062356566000,1.19856591796875,2.805792748779058,-1.55888363943696,6.554355008214712,-0.1436527818441391,1.1636584997177124,-0.2484448403120041,jumping
1783087062366610700,1.208610595703125,2.989078939640522,-1.9671461681589484,7.792153759384155,-0.2658807039260864,1.3500515222549438,-0.192098468542099,jumping
1783087062376654800,1.21865478515625,2.6774033924922347,-2.8861557407826184,8.772132764494419,-0.285944402217865,1.2764683961868286,-0.2298649251461029,jumping
1783087062386699000,1.228698974609375,2.1981815137974916,-4.037636683197319,8.966751665753126,-0.1874404847621917,1.0778263807296753,-0.3313579857349396,jumping
1783087062396743700,1.23874365234375,1.911958095552772,-4.350572751800716,9.490105677771568,-0.0903751850128173,0.7602396607398987,-0.4151490330696106,jumping
1783087062406787800,1.248787841796875,1.7837310902208088,-3.816061678212881,9.84093103978634,-0.023684836924076,0.4325081408023834,-0.4624829888343811,jumping
1783087062416833000,1.2588330078125,2.017152161952108,-3.2533123521342873,9.919161111414432,0.0608167722821235,0.0516217127442359,-0.4959278702735901,jumping
1783087062426876700,1.268876708984375,2.4353552160605787,-2.8294132783412933,9.28220760822296,0.1778259426355362,-0.2048667967319488,-0.4907166063785553,jumping
1783087062436921900,1.278921875,2.518576227843761,-2.680639890195429,8.531616619935631,0.2572183907032013,-0.3343731462955475,-0.4743114411830902,jumping
1783087062446966000,1.288966064453125,2.455164955163002,-2.624928232106566,7.913451988366246,0.3688485026359558,-0.3368669152259826,-0.4711265861988067,jumping
1783087062457010000,1.299010009765625,2.3618096489869056,-2.516130003735423,7.6483216270327565,0.4789709746837616,-0.2253185361623764,-0.4479881823062897,jumping
1783087062467054800,1.309054931640625,2.5587258674025533,-2.045642781768739,8.494061088523269,0.4447120428085327,-0.1849663257598877,-0.3610348999500274,jumping
1783087062477099000,1.31909912109375,3.01384016367048,-1.442596078223735,9.537189500507711,0.2975539863109588,-0.3435121178627014,-0.2245895266532898,jumping
1783087062487143700,1.329143798828125,3.45335707783401,-1.0197313159145414,9.93576153308153,0.1608885526657104,-0.6900759339332581,-0.0728873610496521,jumping
1783087062497187800,1.339187744140625,3.5578958951950073,-0.6409004872515798,9.717361358740924,0.1848518699407577,-1.2052509784698486,0.0862815082073211,jumping
1783087062507233000,1.34923291015625,1.664668219075352,-0.6543249092310667,8.837139781934022,0.3598255515098572,-1.7254925966262815,0.1763727813959121,jumping
1783087062517276400,1.3592763671875,-1.9671686722517012,-0.9035836015634238,6.766645759764313,0.5726906657218933,-1.9315950870513916,0.1929956823587417,jumping
1783087062527320300,1.3693203125,-2.290202941021323,1.0598792019076644,5.011363349914551,0.6770684719085693,-2.055448532104492,0.4551932215690613,jumping
1783087062537365500,1.379365478515625,1.694782932962477,4.915601713249087,3.3533412908554077,0.6811842322349548,-2.114005327224731,0.9750602841377258,jumping
1783087062547409400,1.389409423828125,3.9923420819655058,6.616210283625126,0.6604658962041139,0.4516857862472534,-1.7370697259902954,1.4232029914855957,jumping
1783087062557454300,1.399454345703125,-0.7175774842187762,3.7658635228484862,-3.062960752931237,-0.1217170357704162,-0.5982656478881836,1.3490742444992063,jumping
1783087062567498500,1.40949853515625,-6.695979401388764,0.5523001205176115,-5.200394806429744,-0.712824285030365,0.7781223058700562,0.8240182399749756,jumping
1783087062577542700,1.419542724609375,-10.561246716797353,-0.1538796252436935,-7.977482854250073,-0.8463128805160522,2.281813383102417,0.2358506619930267,jumping
1783087062587587300,1.42958740234375,-4.809723756238818,2.935748331469297,-13.670259026807546,-0.7644526362419128,4.139388084411621,0.1172324046492576,jumping
1783087062597631500,1.439631591796875,-1.0188530717752873,2.118868761499226,-19.62439656355381,-0.9180431962013244,6.235729217529297,-0.3406127393245697,jumping
1783087062607676400,1.449676513671875,-1.7419250617571174,-4.289470048323273,-17.72671351546049,-1.016240119934082,7.390423774719238,-1.324508547782898,jumping
1783087062617720300,1.45972021484375,-0.7488947057634592,-5.990590659874678,-13.702373828470709,-0.8139939904212952,7.521603584289551,-1.9787393808364868,jumping
1783087062627765500,1.469765625,-0.8575362092029303,-1.6383584504291415,-10.605144310712811,-0.2821737825870514,6.753401756286621,-1.9396668672561648,jumping
1783087062637809400,1.479809326171875,-1.2365331151477992,0.1474181741446256,-8.669621653568743,0.231485053896904,5.450530529022217,-1.4961191415786743,jumping
1783087062647853300,1.489853271484375,-0.4217568741325289,-2.255987952208519,-8.042998405733703,0.5032710433006287,3.602107286453247,-1.241585373878479,jumping
1783087062657898500,1.4998984375,0.9375059641052036,-5.457153645259142,-7.862195848381519,0.7075840830802917,1.3621240854263306,-1.1842314004898071,jumping
1783087062667942400,1.5099423828125,1.6725689091973006,-6.295898133295774,-8.645815830567479,0.8873695731163025,-0.8327187895774841,-1.0793662071228027,jumping
1783087062677987300,1.5199873046875,1.104450238105282,-5.501518856686354,-8.965190992307662,0.9674443006515504,-2.803110122680664,-0.8045182228088379,jumping
1783087062688031500,1.530031494140625,0.451138561037369,-3.696313016760349,-10.584977136474848,0.8888384699821472,-3.953563928604126,-0.3817121386528015,jumping
1783087062698075600,1.54007568359375,-0.0807180251194629,-0.7635022000476718,-11.236895569086077,1.2995651960372925,-4.574522972106934,0.2485918998718261,jumping
1783087062708120300,1.550120361328125,-0.1052480981415137,0.9132678141012788,-11.531529672801494,1.4876536130905151,-4.461544513702393,0.7216824889183044,jumping
1783087062718164500,1.56016455078125,0.4579279654491692,2.33829345658198,-13.529261825621129,1.2641220092773438,-3.6990058422088623,1.069724678993225,jumping
1783087062728209400,1.57020947265625,0.9300883082598448,3.9952340040147303,-14.63671453347802,0.9711971879005432,-2.618496894836426,1.3366963863372805,jumping
1783087062738253300,1.58025341796875,0.1139075342088937,3.1785318364381787,-14.08413325793147,0.7108985185623169,-1.5195850133895874,1.3937046527862549,jumping
1783087062748298500,1.590298583984375,-1.9937432293139397,1.5916189110860228,-11.875040327888726,0.3869630694389343,-0.8710758090019226,1.207586646080017,jumping
1783087062758342400,1.60034228515625,-3.3298668917655943,0.052399172540009,-10.827952364623544,0.0958689451217651,-0.628579318523407,0.8394016623497009,jumping
1783087062768386300,1.61038623046875,-3.888212722188234,-0.4710252743661403,-11.90104804484844,0.0299306754022836,-0.4178260564804077,0.3993784487247467,jumping
1783087062778431500,1.620431396484375,-3.425504902051389,0.3015736937202513,-13.534930518907307,0.1121421009302139,-0.1054255962371826,0.0539880879223346,jumping
1783087062788475400,1.630475341796875,-2.5247978788375853,1.860001844474673,-14.802785385644436,0.1133650243282318,0.292058914899826,-0.1377688348293304,jumping
1783087062798520300,1.640520263671875,-2.6594378199517728,2.3636769041635093,-14.830718517708778,-0.0676086992025375,0.7050297856330872,-0.2390865832567215,jumping
1783087062808564500,1.650564453125,-3.2815532349735497,1.7419633479408918,-13.773021482145785,-0.330333262681961,1.1028610467910769,-0.3401716351509094,jumping
1783087062818608600,1.660608642578125,-3.3856951619714497,1.252987260212004,-12.404950337421893,-0.5028677582740784,1.3162956237792969,-0.3988183736801147,jumping
1783087062828653300,1.6706533203125,-2.7616604693248865,0.9807828688390552,-10.653935521888732,-0.4729228913784027,1.225749373435974,-0.3540186882019043,jumping
1783087062838697500,1.680697509765625,-2.302909570120275,1.0616884432867169,-8.235035473805665,-0.2987484633922577,0.8168155550956726,-0.2366348952054977,jumping
1783087062848742400,1.690742431640625,-1.87022805493474,1.2743076961383222,-5.014057411304116,-0.0824028328061103,0.1660372614860534,-0.0627262145280838,jumping
1783087062858786300,1.700786376953125,-1.1595421568606048,1.7948340835154055,-1.6097352902740238,0.0987021923065185,-0.6218658089637756,0.1938731223344802,jumping
1783087062868831500,1.71083154296875,0.3336187180828303,2.324719689259678,1.534496801677346,0.228931576013565,-1.6044024229049685,0.5068715214729309,jumping
1783087062878875400,1.72087548828125,2.2449685455441473,2.090372296463698,3.5912259178668258,0.4050197303295135,-2.577669620513916,0.7715997695922852,jumping
1783087062888919300,1.730919189453125,3.531310086086392,0.7342635383427143,4.616736840096116,0.597050666809082,-3.326557159423828,0.86641925573349,jumping
1783087062898964500,1.740964599609375,4.345759798561036,-0.8382295242518186,5.940524021935462,0.7373884916305542,-3.872631072998047,0.8054501414299011,jumping
1783087062909008400,1.75100830078125,4.043329634141922,-1.4059959478400648,7.580628146988153,0.8826575875282288,-4.156009197235107,0.713331401348114,jumping
1783087062919053600,1.761053466796875,3.363784358936548,-1.031329545380175,9.248874078419805,1.042572855949402,-4.331490993499756,0.7756746411323547,jumping
1783087062929097500,1.771097412109375,3.2849870088145137,-0.0456948525957763,11.725316214889288,1.2391468286514282,-4.399650573730469,0.9275139570236206,jumping
1783087062939141600,1.7811416015625,3.9354818383634087,0.9366998353540896,14.178798916053772,1.4616329669952393,-4.216497421264648,0.9946835041046144,jumping
1783087062949186300,1.791186279296875,4.979365452629327,1.8834961173087357,16.152621785497665,1.418475866317749,-4.106058597564697,1.0229474306106567,jumping
1783087062959230500,1.80123046875,5.94360562133789,2.741357393747568,16.733534837037325,0.942107319831848,-3.879033327102661,1.0732483863830566,jumping
1783087062969275400,1.811275390625,6.455673100188374,3.092327132669091,15.97588107075691,0.347613662481308,-3.476816892623902,1.0729492902755735,jumping
1783087062979319300,1.8213193359375,6.197523099261522,2.4839503201425073,13.746208294022082,-0.1309509724378585,-2.6784160137176514,1.0075712203979492,jumping
1783087062989364500,1.831364501953125,5.735692938742042,2.0183577383495868,11.335696135056018,-0.5303380489349365,-1.747162103652954,0.9587327837944032,jumping
1783087062999408400,1.841408447265625,4.9668093379169695,1.6711530510500072,9.567841828402877,-0.8427882194519043,-0.8161389231681824,0.8635404706001282,jumping
1783087063009452300,1.851452392578125,3.691654961821437,0.2113013021208346,6.930336438795924,-0.9847951531410216,0.1772425174713134,0.5650760531425476,jumping
1783087063019497500,1.86149755859375,2.4976094276607035,-1.1340440699234604,4.715729713767766,-0.9354512095451356,1.1435903310775757,0.2598379254341125,jumping
1783087063029541400,1.871541259765625,2.2048314732059837,-1.332832365821302,3.0238696825146674,-0.6834729909896851,2.115662097930908,0.0402903854846954,jumping
1783087063039586600,1.881586669921875,2.591753692257404,-1.1786832759864627,2.78363352394104,-0.3972804844379425,2.9515552520751953,-0.0780178904533386,jumping
1783087063049630500,1.89163037109375,3.4365231396719813,-1.0697405245780944,4.175582387858629,-0.2178974002599716,3.4215903282165527,-0.1275958269834518,jumping
1783087063059675400,1.90167529296875,4.3852246707260605,-1.591324312053621,6.177765090346336,-0.1223202496767044,3.5062801837921143,-0.2163179367780685,jumping
1783087063069719600,1.911719482421875,4.851311319646239,-2.1608668054036797,8.645297944173217,-0.0411622785031795,3.186717748641968,-0.2778223156929016,jumping
1783087063079763500,1.921763427734375,5.190144046050309,-2.775384751033783,10.41777464993,0.1238904595375061,2.582581043243408,-0.3640200495719909,jumping
1783087063089808400,1.931808349609375,5.1979602727591985,-3.1307693837881088,11.249916378700732,0.291527658700943,1.8321552276611328,-0.4691616296768188,jumping
1783087063099852300,1.941852294921875,4.9614890196770425,-2.783295670288801,11.157447353839874,0.3825573325157165,1.127969741821289,-0.5196483731269836,jumping
1783087063109897500,1.9518974609375,4.513722455823421,-1.952288206245005,10.317319887012244,0.3887225687503814,0.6034452319145203,-0.5064153671264648,jumping
1783087063119941400,1.96194140625,4.092084897221625,-0.9548296585455536,9.029402475455402,0.319914847612381,0.4133294224739074,-0.4921899735927582,jumping
1783087063129985300,1.9719853515625,3.684359836377203,-0.0563498098619282,8.058750101616978,0.1672991961240768,0.5400396585464478,-0.4080167710781097,jumping
1783087063140030500,1.982030517578125,3.2138226377889514,0.6382355058260262,8.645355811840295,-0.0283851362764835,0.7520415782928467,-0.2744998931884765,jumping
1783087063150074400,1.992074462890625,2.708201266337931,0.8920984770834446,9.660579733332993,-0.2566523849964142,0.8694095015525818,-0.1760622560977935,jumping
1783087063160119600,2.00211962890625,2.7765543793350456,0.7207439854256809,10.413292536079885,-0.4621444642543793,0.7666904330253601,-0.0559130199253559,jumping
1783087063170163500,2.01216357421875,3.852240952835977,0.811831638930738,10.450991859877108,-0.4179903268814087,0.4196948707103729,0.1358689367771148,jumping
1783087063180208400,2.02220849609375,4.313312111681699,0.9434304587833584,9.865668006157874,-0.1798496842384338,0.0825876742601394,0.3874736428260803,jumping
1783087063190252500,2.03225244140625,3.764454532833397,0.4652851232789456,9.273040551427004,-0.0987662672996521,-0.1183928325772285,0.5205936431884766,jumping
1783087063200296400,2.04229638671875,2.7402260516300796,-0.2030957838334143,9.513306520617007,-0.1867560148239135,-0.2018073052167892,0.480993241071701,jumping
1783087063210341400,2.05234130859375,-0.6534089634299278,-1.0447150966539978,9.829242940080166,-0.3103397190570831,-0.1435959339141845,0.2332135438919067,jumping
1783087063220385500,2.062385498046875,-4.011733887916803,-0.519867485076934,8.24004248831272,-0.3305232226848602,0.0851410999894142,0.0804642736911773,jumping
1783087063230430500,2.072430419921875,-2.696347454676032,1.6261689770720895,6.624284869009256,-0.3429308831691742,0.0389360524713993,0.1782291829586029,jumping
1783087063240474400,2.082474365234375,3.426436337682605,4.42535969723761,3.979077234461903,-0.3097356855869293,-0.0474854856729507,0.6982006430625916,jumping
1783087063250518500,2.0925185546875,4.611910442852974,7.448633167424798,-2.616462017056346,0.0159151181578636,0.2816303372383117,1.3365448713302612,jumping
1783087063260563500,2.1025634765625,0.9126376995041966,3.987487335410714,-9.318656639698148,-0.1931498050689697,1.6474125385284424,1.3749839067459106,jumping
1783087063270607400,2.112607421875,-5.930291966256499,3.806344586318731,-13.735268382334707,-0.7999185919761658,3.831782579421997,1.340290665626526,jumping
1783087063280652500,2.122652587890625,-8.898287785857915,5.006890588414668,-20.721756916463377,-1.2464172840118408,6.6995649337768555,1.1475147008895874,jumping
1783087063290696400,2.132696533203125,-4.292566845294833,1.3882336427867412,-25.35654086990356,-1.071869134902954,9.161205291748049,0.7037574052810669,jumping
1783087063300741400,2.142741455078125,0.1765965204970911,-5.959180791610479,-21.82359470704794,-0.3341253399848938,9.812241554260254,-0.117357850074768,jumping
1783087063310785500,2.15278564453125,5.7924739796280855,-7.718067363432049,-13.49281571675539,0.3806055784225464,8.821891784667969,-0.8691037893295288,jumping
1783087063320829400,2.162829345703125,8.515055361235142,-4.376351336179673,-9.001309768915176,0.9456266164779664,7.1587605476379395,-1.2148927450180054,jumping
1783087063330874400,2.172874267578125,6.677523707243799,-1.5899195598222315,-6.947408569628,1.0907588005065918,5.080295085906982,-1.4593533277511597,jumping
1783087063340918500,2.18291845703125,4.8266766446053975,-0.83680489827618,-13.055439029490946,0.8769765496253967,3.873588323593139,-1.5597113370895386,jumping
1783087063350963500,2.19296337890625,3.6114363467246298,1.8274124110370873,-14.473918172937632,0.8411077857017517,1.668725609779358,-1.1659680604934692,jumping
1783087063361007400,2.20300732421875,2.627434077447653,1.665972433541715,-7.253572952139377,1.4990862607955933,-1.3425748348236084,-0.6371067762374878,jumping
1783087063371051500,2.213051513671875,-2.7936031292915344,-2.421882717155665,-6.048640697783231,2.007436513900757,-3.89900541305542,-0.6795754432678223,jumping
1783087063381096400,2.223096435546875,-6.576660948047041,-6.793222216522693,-5.4309103659778835,1.7599432468414309,-5.626702785491943,-1.4050378799438477,jumping
1783087063391140400,2.233140380859375,-4.112249733372033,-6.198252582579851,-15.287224268335104,1.2165480852127075,-5.1391730308532715,-2.1754331588745117,jumping
1783087063401185500,2.243185546875,-3.258979876376688,0.538692889317125,-8.727521469351649,1.289217233657837,-3.958855152130127,-2.068120002746582,jumping
1783087063411229400,2.2532294921875,-0.7050461386214941,2.7973811865255236,-12.976580012309553,1.0027867555618286,-2.447685956954956,-2.1579978466033936,jumping
1783087063421274400,2.2632744140625,2.476001114703714,2.128645474626124,-14.481265613090992,0.3090914785861969,-1.1638469696044922,-1.9242093563079832,jumping
1783087063431318500,2.273318603515625,4.837847150178253,3.5970980247706175,-14.860897382873295,-0.5197210311889648,-0.533380925655365,-1.3548718690872192,jumping
1783087063441362400,2.283362548828125,6.417768609207868,5.450325260543823,-15.197771376425028,-0.9738741517066956,-0.5677767992019653,-0.4696826338768005,jumping
1783087063451407400,2.293407470703125,5.309260839340091,4.839418637278675,-17.03590099630952,-0.734157145023346,-0.8100687861442566,0.404874175786972,jumping
1783087063461451500,2.303451416015625,1.7203592727676034,2.476144614827633,-21.03896525555849,-0.0019865976646542,-0.4398214817047119,0.8455459475517273,jumping
1783087063471496400,2.313496337890625,-1.1237016126725825,0.3241226485282182,-21.38300081130266,0.6289556622505188,0.0649309009313583,0.6953026652336121,jumping
1783087063481540400,2.323540283203125,-2.3263431988082823,-1.2262127966634928,-16.65146328755021,0.6359338760375977,0.0882095471024513,0.2864640653133392,jumping
1783087063491585500,2.33358544921875,-1.6221746467389166,-0.3072625530116259,-11.238218926644324,0.1916067004203796,-0.2764038443565368,-0.0349339544773101,jumping
1783087063501629400,2.34362939453125,-0.6074541447237134,2.16053494310081,-8.191502037027478,-0.1957930922508239,-0.5099270343780518,-0.1022181063890457,jumping
1783087063511675100,2.353675048828125,0.8767845150303095,3.967332143871486,-6.202789641487598,-0.3746105134487152,-0.6947618722915649,0.0585175119340419,jumping
1783087063521720000,2.363719970703125,2.39178188566342,4.76552834842056,-3.865377790045738,-0.2988244295120239,-0.9155032634735109,0.358848363161087,jumping
1783087063531764000,2.373763916015625,2.8197257048025723,3.568051086245477,-1.150218082872033,-0.0058697927743196,-1.1070178747177124,0.4749446213245392,jumping
1783087063541809200,2.38380908203125,2.7079092976540324,1.8603589873492716,1.5360644893854856,0.2416718751192093,-1.1940209865570068,0.3594072163105011,jumping
1783087063551853000,2.39385302734375,1.7513348412677645,0.3681980832286179,4.821121933087706,0.2797832787036896,-1.213886022567749,0.0237495936453342,jumping
1783087063561897000,2.40389697265625,0.452237535255216,0.1431301215618848,8.407442543256282,0.0578109510242939,-1.2461179494857788,-0.3538102507591247,jumping
1783087063571942100,2.413942138671875,-0.6949061451401561,1.5192374193556606,11.42582824140191,-0.2828464806079864,-1.3818193674087524,-0.5657632350921631,jumping
1783087063581986000,2.423986083984375,-1.3539490958690643,3.5220082969948647,13.99466750653982,-0.495694100856781,-1.741885542869568,-0.500645637512207,jumping
1783087063592031000,2.434031005859375,-1.8358865171328187,4.633323817759752,15.86234353890419,-0.5017994046211243,-2.322371482849121,-0.2139118462800979,jumping
1783087063602075100,2.4440751953125,-1.6559106198631226,3.982502240474522,16.47119322963953,-0.4590133726596832,-2.861520528793335,0.0919412150979042,jumping
1783087063612120000,2.4541201171875,-0.6397691451340913,2.5537650301247834,15.556721592706442,-0.528106153011322,-3.1806979179382324,0.2913555204868316,jumping
1783087063622164000,2.4641640625,0.7891467827834189,1.2364480672128495,13.689280538141729,-0.5578723549842834,-3.138479232788086,0.4396787285804748,jumping
1783087063632208100,2.4742080078125,2.020430306839943,-0.1846301528163254,11.730486895525456,-0.4628047347068786,-2.771754026412964,0.5164081454277039,jumping
1783087063642253000,2.484253173828125,2.8311709356635806,-1.8802305396415293,10.51490348329544,-0.3107397258281708,-2.2251880168914795,0.4582907855510711,jumping
1783087063652297000,2.494296875,3.4760359426319596,-3.4403275003910063,9.691361825087666,-0.234955221414566,-1.5592468976974487,0.2999453544616699,jumping
1783087063662342100,2.504342041015625,3.7607521711841225,-3.927755043503642,9.057031656137108,-0.2707817852497101,-0.7933106422424316,0.1282993108034134,jumping
1783087063672386000,2.514385986328125,3.639195291265845,-3.5264866114526985,8.359225917097925,-0.3528915643692016,0.0324349552392959,-0.0418199524283409,jumping
1783087063682430000,2.524429931640625,2.777736282595992,-2.8300223501503465,7.90257169791162,-0.3465362191200256,0.7680180072784424,-0.173166275024414,jumping
1783087063692475100,2.53447509765625,1.5092343501269816,-2.229025857133418,7.837858110460639,-0.235214501619339,1.377610206604004,-0.2557812631130218,jumping
1783087063702519300,2.544519287109375,0.7733711215026676,-2.1933872652582824,7.538284796777367,-0.1192562356591224,1.8886191844940183,-0.3159627914428711,jumping
1783087063712564000,2.55456396484375,0.8526029175192117,-2.4989316161751747,7.545163450375199,-0.0603119581937789,2.2208871841430664,-0.4247702360153198,jumping
1783087063722608000,2.564608154296875,1.5435418395288287,-2.694413564004004,8.289172722184658,-0.0058226678520441,2.330900192260742,-0.5484641194343567,jumping
1783087063732653000,2.574653076171875,1.961529205060005,-2.7431659044742585,8.913356175652146,0.0502379387617111,2.2858190536499023,-0.6638085842132568,jumping
1783087063742697000,2.584697021484375,1.8056429161690175,-2.733718569432199,8.916917667526006,0.0771909058094024,2.1669297218322754,-0.7831087708473206,jumping
1783087063752741000,2.5947412109375,1.0063036790646611,-2.4945716674000025,9.01146583674848,0.0740022957324981,1.8843426704406736,-0.8168781995773315,jumping
1783087063762786000,2.6047861328125,0.6908906989537179,-2.175807038773596,9.297050372567773,0.0861448049545288,1.4191524982452393,-0.7497114539146423,jumping
1783087063772830000,2.614829833984375,0.9743113347373902,-2.131235491119325,9.385746893152596,0.1556985825300216,0.8556997179985046,-0.6116960644721985,jumping
1783087063782875100,2.624875244140625,1.587765450528264,-2.1424906062357127,9.310603681623936,0.2417690306901931,0.2455889731645584,-0.4263583421707153,jumping
1783087063792919000,2.6349189453125,2.346248068848252,-1.893152711187303,8.986657558706403,0.3522323966026306,-0.321652889251709,-0.2077402472496032,jumping
1783087063802963000,2.644962890625,3.100207072263956,-1.6841415658302603,8.434101417601108,0.5174487233161926,-0.7542321681976318,0.0014366565737873,jumping
1783087063813008100,2.655008056640625,3.9319957498133182,-1.5517945579588412,8.207529042720795,0.6738199591636658,-1.0902937650680542,0.1878888309001922,jumping
1783087063823052300,2.66505224609375,4.1811850301712745,-1.1113248731151222,8.360935059103369,0.7745594382286072,-1.3123842477798462,0.3668612539768219,jumping
1783087063833097000,2.675096923828125,3.808431913986802,-0.544516627034545,8.876464076584577,0.8579999804496765,-1.3884518146514893,0.5265430808067322,jumping
1783087063843141000,2.68514111328125,3.2709827411204575,0.152735423644632,9.815541746985913,0.815854549407959,-1.415187954902649,0.6556925177574158,jumping
1783087063853186000,2.69518603515625,2.9244050996780393,0.7314508190095425,11.020326701825857,0.6273925304412842,-1.4726134538650513,0.7428212761878967,jumping
1783087063863230000,2.70522998046875,2.6334613749131557,1.0370736419901252,12.072684714448451,0.3247028887271881,-1.622151255607605,0.7725222110748291,jumping
1783087063873274000,2.715274169921875,1.3933889797233043,1.4245304063096642,12.338165204393864,-0.0137984752655029,-1.8010603189468384,0.7455161809921265,jumping
1783087063883319000,2.725319091796875,-0.4220727351486683,1.8773121679767968,10.902665952563286,-0.3307770192623138,-1.9941918849945068,0.6407203674316406,jumping
1783087063893363000,2.735363037109375,0.0204110659964382,1.7717540905706584,8.675013283479213,-0.4602266252040863,-2.272603750228882,0.5087663531303406,jumping
1783087063903408000,2.745408203125,1.6181383769601585,3.0453824261426923,5.2188545922279355,-0.4377294182777405,-2.590500831604004,0.6537603735923767,jumping
1783087063913452000,2.7554521484375,4.540155704718828,5.908554181700945,0.9750748664557932,-0.1936658769845962,-2.8424572944641113,1.1186984777450562,jumping
1783087063923496000,2.765495849609375,3.143260908831656,5.763841759383678,-3.9033629450470206,0.2337041795253753,-2.544606924057007,1.5354406833648682,jumping
1783087063933541000,2.775541015625,-6.746817023700475,3.0881016239285466,-8.101098128002882,0.3135872781276703,-1.1491172313690186,1.4850637912750244,jumping
1783087063943585300,2.785585205078125,-12.383421227180955,2.2590857720933855,-12.964824108064176,0.0622544400393962,1.3550615310668943,1.4231330156326294,jumping
1783087063953630000,2.7956298828125,-2.7447020280003547,5.777366426867246,-16.580115376651285,-0.1924558877944946,3.719912052154541,2.0413990020751953,jumping
1783087063963674000,2.805674072265625,1.2458023171439767,4.14111430106759,-23.77220597834587,-0.9841684103012084,5.6307373046875,2.011488437652588,jumping
1783087063973719000,2.815718994140625,-1.5711169519357382,-5.05123826418519,-21.43231341600418,-1.0412660837173462,5.403099536895752,1.2699602842330933,jumping
1783087063983763000,2.825762939453125,-3.28067586761713,-9.991711968362331,-15.070176093125342,-0.2511690855026245,3.876692056655884,0.6292517185211182,jumping
1783087063993807000,2.83580712890625,-1.8014799512706696,-7.667484592664241,-11.73480534324646,0.5867255926132202,1.4802111387252808,0.5174319744110107,jumping
1783087064003852000,2.84585205078125,-2.363104511103034,-3.572394960668683,-8.215674939775466,1.1231530904769895,-0.7786226272583008,0.4691973030567169,jumping
1783087064013896000,2.85589599609375,-5.143570510923862,-2.52353940320909,-7.156584404027462,1.1897709369659424,-2.1995015144348145,0.0889724791049957,jumping
1783087064023941000,2.865941162109375,-6.585015519416332,-1.091497452225536,-5.270908604592084,0.8262395858764648,-2.8516736030578613,-0.3905057311058044,jumping
1783087064033985000,2.875985107421875,-5.856221936917304,0.3773870595954358,-3.5188813971459862,0.3364251554012298,-3.0872268676757812,-0.7502024173736572,jumping
1783087064044029000,2.88602880859375,-4.428595610418916,-0.0056339142337441,-3.651307169342041,-0.2373194098472595,-3.0284698009490967,-1.1425116062164309,jumping
1783087064054074000,2.89607421875,-4.070213257153332,-1.1344121725834906,-0.9478992747604846,0.0138627607375383,-3.1980185508728027,-1.53626549243927,jumping
1783087064064118300,2.9061181640625,-4.492540259324014,-3.480451420986652,-4.713557630425691,-0.0611309297382831,-2.975945472717285,-2.030919075012207,jumping
1783087064074163000,2.916162841796875,-4.237871086250245,-3.261296628886461,-9.365382150515911,-0.3437652885913849,-2.5566561222076416,-2.3708367347717285,jumping
1783087064084207000,2.92620703125,-4.963458273923397,-0.4772780511505901,-15.67295143238306,-0.2370893955230713,-1.3121446371078491,-2.2985522747039795,jumping
1783087064094252000,2.936251953125,-4.942830496436358,3.0443109975188967,-21.929446945095066,-0.0607931911945343,0.0912845358252525,-1.588473916053772,jumping
1783087064104296000,2.9462958984375,-3.081633304697275,4.330910312214494,-22.122133416986465,-0.1321729272603988,1.1552386283874512,-0.7546254992485046,jumping
1783087064114340000,2.956340087890625,-2.298047224780917,3.0412048481971024,-17.472883715820313,-0.2494833022356033,1.8704262971878052,-0.2621484100818634,jumping
1783087064124385000,2.966385009765625,-4.4972216951385136,0.9323711585000156,-12.40640930405855,-0.2953222393989563,2.290797233581543,-0.1678603887557983,jumping
1783087064134429000,2.976428955078125,-5.456920421025156,-0.8344362694486975,-9.742446700158714,-0.1298797577619552,2.3160364627838135,-0.4218604266643524,jumping
1783087064144474000,2.98647412109375,-6.521967819350958,-1.4822037198603153,-10.569261680948731,0.062143113464117,2.161881685256958,-0.7248769402503967,jumping
1783087064154518000,2.99651806640625,-5.841196217221022,-1.9360382054507732,-13.031272556483744,0.1756132245063781,1.9145655632019043,-1.0307499170303345,jumping
1783087064164562000,3.00656201171875,-3.964676368665695,-2.1596388710439203,-15.643012221193311,0.3016645014286041,1.698396921157837,-1.283806085586548,jumping
1783087064174607000,3.016607177734375,-2.0864850797668097,-1.4373685528337954,-17.369173165977,0.5190727114677429,1.601915717124939,-1.409924864768982,jumping
1783087064184651300,3.0266513671875,0.1319432493761181,-0.5816979183070361,-16.911062318241594,0.5847154259681702,1.9494166374206543,-1.5864778757095337,jumping
1783087064194696000,3.036696044921875,1.967056005657464,1.1182719157740473,-13.070825983715055,0.0495017990469932,1.9160161018371584,-1.548762559890747,jumping
1783087064204740000,3.046739990234375,3.113688777388632,3.125942402023077,-8.823927249139548,-0.4425682425498962,1.9702179431915283,-1.2281689643859863,jumping
1783087064214785000,3.056784912109375,1.7502141666747628,4.773045592182874,-4.301411246007681,-0.6315938234329224,1.757914662361145,-0.9288276433944702,jumping
1783087064224829000,3.066828857421875,1.2515633648887277,5.294446132045984,-0.0309825827628374,-0.5418878197669983,1.1975537538528442,-0.7078582048416138,jumping
1783087064234873000,3.076873046875,1.859262862675637,4.804510405504703,2.8985049347460268,-0.2057332396507263,0.4472275972366333,-0.5748929381370544,jumping
1783087064244918000,3.08691796875,2.426065263537317,4.362622962817549,4.3501901822239155,0.2254191637039184,-0.2092247754335403,-0.4723800420761108,jumping
1783087064254962000,3.0969619140625,2.5644188183471557,3.7232805186629294,5.230622186911106,0.6237833499908447,-0.5647704005241394,-0.3825348317623138,jumping
1783087064265007000,3.107007080078125,2.0364416765727102,3.097325379347801,7.213307577246427,0.8223022222518921,-0.8961064219474792,-0.2634386122226715,jumping
1783087064275051000,3.117051025390625,1.1502496470540762,2.409218319763243,9.876077171969412,0.8786935806274414,-1.253340721130371,-0.1731268316507339,jumping
1783087064285095000,3.127094970703125,-0.071504270504415,1.594080332763493,13.240110537230969,0.7740662097930908,-1.769164800643921,-0.1319789886474609,jumping
1783087064295140000,3.13714013671875,-1.5067285047858952,0.6772936238210648,16.443526639556882,0.465986430644989,-2.4080007076263428,-0.1094822064042091,jumping
1783087064305184000,3.14718408203125,-2.1103991854481396,-0.2821037810314447,18.844758929002285,0.0302479863166809,-3.097921848297119,-0.115291379392147,jumping
1783087064315229200,3.157229248046875,-1.265558718623966,-1.0231306029640137,19.02299134360552,-0.4320131242275238,-3.5741539001464844,-0.109380230307579,jumping
1783087064325273000,3.167273193359375,0.4453779151514172,-1.1294342380404472,16.513372329199314,-0.7150669097900391,-3.6527915000915527,-0.1206885203719139,jumping
1783087064335317200,3.177317138671875,1.5521426407441496,-1.067008250069991,13.43461019602418,-0.735386848449707,-3.333748579025269,-0.182034432888031,jumping
1783087064345362000,3.18736181640625,2.1218989229753613,-0.7469049201857298,10.96938561913967,-0.6322606801986694,-2.620279312133789,-0.2038794308900833,jumping
1783087064355406000,3.197406005859375,2.9781673772647976,-0.3291543590851128,9.19628581304848,-0.4876658916473388,-1.6218868494033811,-0.1440017074346542,jumping
1783087064365451000,3.207450927734375,3.894542801992595,0.0428599214307963,8.10925045479834,-0.341151624917984,-0.6305839419364929,-0.0212424844503402,jumping
1783087064375495000,3.217494873046875,3.8503374573022127,0.8731383405476808,6.654187839841843,-0.1932809352874755,0.4782620668411255,0.1181593537330627,jumping
1783087064385540000,3.2275400390625,3.463855090972781,1.400925074316561,5.713209304255247,-0.0338996201753616,1.543404221534729,0.2317955940961837,jumping
1783087064395584000,3.237583984375,2.8578458843603727,0.415749815737456,5.699232216829061,0.1118567809462547,2.4177980422973633,0.258318543434143,jumping
1783087064405628000,3.2476279296875,2.0596727684259415,-0.908759396766126,5.907167111256718,0.2240171432495117,3.072514295578003,0.1894925385713577,jumping
1783087064415673000,3.257673095703125,1.414519299905002,-1.7330653173446655,6.424712144735455,0.2486540377140045,3.471964120864868,-0.0168957877904176,jumping
1783087064425717000,3.267717041015625,1.3069538281992077,-2.3478033354662355,7.591127329170703,0.1813294738531112,3.601519823074341,-0.2004602700471878,jumping
1783087064435762200,3.27776220703125,1.798987549933046,-2.07028768594265,9.032695671781896,0.0573289692401886,3.518749237060547,-0.2450583726167678,jumping
1783087064445806000,3.28780615234375,2.0657836525216697,-1.760446076223254,10.35141972501278,-0.0913318395614624,3.2101027965545654,-0.2748169600963592,jumping
1783087064455851000,3.29785107421875,2.0301110122464596,-1.7258140310421586,11.173764866912364,-0.1629269421100616,2.7127559185028076,-0.3003172576427459,jumping
1783087064465895200,3.307895263671875,2.237707468499988,-1.3526089333064852,11.362388911670443,-0.1080217808485031,2.0946578979492188,-0.2526691555976867,jumping
1783087064475939000,3.31793896484375,2.838739032830298,-1.2547212443977591,11.137210036975144,0.0490756928920745,1.4243214130401611,-0.1597200483083725,jumping
1783087064485984000,3.32798388671875,2.966502366173267,-1.361136523155123,10.432163240766524,0.1778357177972793,0.8447674512863159,-0.0769850686192512,jumping
1783087064496028200,3.338028076171875,2.5778029083162544,-1.3743945025265216,9.68092694031298,0.2000805586576461,0.3548789620399475,-0.0115882232785224,jumping
1783087064506073000,3.348072998046875,1.921558721460402,-1.361698687082529,9.339002677634358,0.1172109395265579,-0.1068243756890297,0.0328841917216777,jumping
1783087064516115200,3.358115234375,1.3711203031614425,-1.287421152472496,9.305927506506444,0.0214503239840269,-0.5538921356201172,0.0582191087305545,jumping
1783087064526159400,3.368159423828125,1.2219994167521595,-1.1767663364492356,9.356817151266336,-0.0323585383594036,-0.9519919157028198,0.1059305816888809,jumping
1783087064536204000,3.3782041015625,1.2494222612068056,-1.0033549122616647,9.326080652219057,0.0091401701793074,-1.315454125404358,0.1963896304368972,jumping
1783087064546248200,3.388248291015625,1.2309751887597142,-0.712610363330692,9.288508169671893,0.182050347328186,-1.5955790281295776,0.2994081377983093,jumping
1783087064556293400,3.39829345703125,1.344188457094133,-0.3298221022788435,9.621602644684913,0.4071455001831054,-1.8167248964309692,0.402128666639328,jumping
1783087064566337000,3.4083369140625,1.502768807374686,0.0811242586996406,10.320058956587314,0.5347468852996826,-2.0953564643859863,0.5091520547866821,jumping
1783087064576381200,3.418381103515625,2.3791617658041417,0.0188606947492808,10.934047763776778,0.4270694553852081,-2.4444429874420166,0.524405300617218,jumping
1783087064586426400,3.42842626953125,2.730075536754727,-0.2789276352133601,10.376353090739247,0.0069881621748209,-2.797423839569092,0.4794194400310516,jumping
1783087064596470000,3.438469970703125,2.802188294546306,-0.2417869682122021,8.914251663187146,-0.5447277426719666,-3.159445285797119,0.400601863861084,jumping
1783087064606515200,3.44851513671875,1.342871237015724,0.5480411478988826,6.511998214000463,-0.8941558003425598,-3.3991124629974365,0.4696023166179657,jumping
1783087064616559400,3.458559326171875,-0.9213955909773708,1.6402632611371577,3.7978298559516666,-0.7945812940597534,-3.4322991371154785,0.748820424079895,jumping
1783087064626604000,3.46860400390625,-2.834780942854285,2.4609040833368896,-0.2637964823812246,-0.1244306713342666,-3.079748153686523,1.1632819175720217,jumping
1783087064636648200,3.478648193359375,-13.025619060766696,5.827031498268246,-2.4411428595513103,0.5233502388000488,-2.058411121368408,1.9269979000091553,jumping
1783087064646692400,3.4886923828125,6.176210846641659,6.4982163568854325,-5.9829439445137975,0.4866887629032135,-1.1795777082443235,2.495637893676758,jumping
1783087064656737000,3.498737060546875,0.9690791331723332,6.1850365426540375,-22.344901723408697,-0.9650237560272216,2.240126371383667,3.056576728820801,jumping
1783087064666781200,3.50878125,-4.8163808760404585,-1.3050458026207985,-31.926447667515276,-1.938929796218872,5.430964469909668,2.253962278366089,jumping
1783087064676826000,3.518826171875,-11.49953411360383,-9.102306968146562,-24.07328385137319,-1.2205482721328735,5.813190460205078,0.8754673600196838,jumping
1783087064686870000,3.5288701171875,-11.507585318112373,-8.041240748411417,-18.958801487767698,0.2622545957565307,4.685742378234863,0.0617033690214157,jumping
1783087064696914200,3.5389140625,-5.223002359557151,0.3580319323927164,-14.554488670212027,1.1187306642532349,2.989053964614868,0.1983999609947204,jumping
1783087064706959400,3.54895947265625,-2.5852538088440893,5.803374143826961,-12.58817456896305,1.1798681020736694,1.5995904207229614,0.5420030951499939,jumping
1783087064717003000,3.5590029296875,-3.33428616951257,5.805150505849719,-11.904122629988192,0.6982764005661011,0.8721437454223633,0.684045672416687,jumping
1783087064727048200,3.569048095703125,-4.016951914826035,3.4270559308856723,-10.523623380845784,-0.0075671225786209,0.2617566585540771,0.5644498467445374,jumping
1783087064737092400,3.57909228515625,-2.702796484684944,1.320617173501104,-7.441481542104483,-0.4078042507171631,-0.7795864343643188,0.3922194838523865,jumping
1783087064747137300,3.58913720703125,-2.3692229939833283,-0.3985175259076058,-5.301198528915643,-0.5715006589889526,-2.2650034427642822,0.000109547516331,jumping
1783087064757181200,3.59918115234375,-2.787956063315272,-2.272151151502132,-6.078540746006369,-0.6206815242767334,-3.5734009742736816,-0.4779161512851715,jumping
1783087064767225300,3.609225341796875,-3.444885894347727,-2.2326206667549906,-10.921481712192296,-0.4763369560241699,-3.894980192184448,-0.7460036873817444,jumping
1783087064777270000,3.61927001953125,-3.979770477423072,-0.4874823420397937,-16.015041699278353,-0.1549432128667831,-3.1085045337677,-0.9309266805648804,jumping
1783087064787314200,3.629314208984375,-3.5324390901163216,2.086935307752341,-19.449393047869204,-0.1598717123270034,-1.5121568441390991,-0.8498519062995911,jumping
1783087064797359000,3.639359130859375,-3.4023873535752296,4.3670694208323955,-18.935285003101825,-0.4407800436019897,0.1040197610855102,-0.5666902661323547,jumping
1783087064807403000,3.649403076171875,-4.110003123489022,2.122830358606577,-14.879979684484004,-0.6449083089828491,1.1831389665603638,-0.5145708918571472,jumping
1783087064817447200,3.659447265625,-6.081552787303925,-2.233068848913908,-11.75304008811712,-0.7476970553398132,1.7712435722351074,-0.7835533022880554,jumping
1783087064827492400,3.669492431640625,-7.133145076251029,-3.674633976654708,-10.5628307711184,-0.821110725402832,2.0937211513519287,-1.1318012475967407,jumping
1783087064837536000,3.679535888671875,-5.91665682413578,-2.2610439204238353,-11.42506251772642,-0.8647686839103699,2.325392007827759,-1.2918583154678345,jumping
1783087064847581200,3.689581298828125,-4.495383666056394,-0.404302539049834,-14.72666543803811,-0.8995105624198914,2.7133524417877197,-1.335831880569458,jumping
1783087064857625300,3.699625244140625,-3.892084887446463,0.6533113482743501,-18.540812222540374,-0.8406469821929932,3.277129650115967,-1.4571795463562012,jumping
1783087064867669000,3.7096689453125,-2.877879495346546,1.4214296638153492,-19.882439596974848,-0.5428735017776489,3.6099891662597656,-1.5607751607894895,jumping
1783087064877714200,3.719714111328125,1.0702269929207862,2.9483813108101486,-15.829503930097818,-0.1744004487991333,3.0561513900756836,-1.4940803050994873,jumping
1783087064887758300,3.72975830078125,4.645997421371937,4.456287334942817,-10.0139647167027,0.0627996698021888,1.7947454452514648,-1.153063178062439,jumping
1783087064897803300,3.73980322265625,4.661522907283902,4.6591377657130355,-7.496672683450579,0.2956204116344452,0.7055006623268127,-0.8109062910079956,jumping
1783087064907847200,3.74984716796875,3.1188246789723633,3.3395068267703056,-5.793908396345377,0.572649359703064,0.1139264777302742,-0.7188490629196167,jumping
1783087064917892000,3.75989208984375,3.0790467953354117,2.2445566037423905,-2.401862404042482,0.8039531707763672,-0.2231050729751587,-0.7434462904930115,jumping
1783087064927936000,3.76993603515625,3.3763352129518984,1.9642219512753187,1.1383487813800572,0.9713255763053894,-0.2290397137403488,-0.8362343311309814,jumping
1783087064937980200,3.779980224609375,2.989979103350639,2.0276614271372555,4.667520101872086,0.9169451594352722,-0.1400448530912399,-0.8967583775520325,jumping
1783087064948025300,3.790025390625,2.227228598453104,1.9758244185246523,8.2836671105057,0.6671679615974426,-0.1339619159698486,-0.8640348315238953,jumping
1783087064958069000,3.800069091796875,1.004420714862272,1.760939266567677,12.57523091623783,0.3891898691654205,-0.514104962348938,-0.7225341796875,jumping
1783087064968114200,3.8101142578125,-1.4139923534214496,2.2623526649348435,16.23707584620714,0.1488672196865081,-1.2778385877609253,-0.4702352583408355,jumping
1783087064978158300,3.820158447265625,-4.720817392295599,2.266535211316496,20.491972009277344,-0.0386086627840995,-2.4844810962677,-0.3132863938808441,jumping
1783087064988202000,3.830201904296875,-6.023460663819312,-0.222218125193566,24.938352867233753,-0.2630520761013031,-4.016953945159912,-0.347818374633789,jumping
1783087064998247200,3.8402470703125,-2.663212077793479,-1.5008195730030536,24.89889296350479,-0.5632950067520142,-5.153228759765625,-0.2579172253608703,jumping
1783087065008291300,3.850291259765625,1.3256699268460272,-0.2442753509618341,19.281001643800735,-0.7857806086540222,-5.504672527313232,-0.1000213027000427,jumping
1783087065018336300,3.860336181640625,3.070672934743762,0.2363911735832691,13.142820375823971,-0.8023888468742371,-5.097400188446045,-0.0392588824033737,jumping
1783087065028380200,3.870380126953125,3.666940791803598,0.3772498430818319,8.01372321141064,-0.6167280077934265,-4.0102434158325195,0.083004243671894,jumping
1783087065038425000,3.880425048828125,3.7655768148615953,1.2213288240142166,4.231265696635842,-0.3438000977039337,-2.547065019607544,0.3377411961555481,jumping
1783087065048469200,3.89046923828125,2.7631226508319378,0.8762775153562427,5.258469394257665,-0.0992526486515998,-1.3118481636047363,0.4823081493377685,jumping
1783087065058513200,3.90051318359375,1.6995339268818497,-0.1333066466838121,6.303930633103847,-0.018411599099636,-0.4816350638866424,0.4800865650177002,jumping
1783087065068558300,3.910558349609375,1.3748136047214268,-1.3705420648820696,6.82181994997561,-0.0386662706732749,0.1964782178401947,0.3446473181247711,jumping
1783087065078602000,3.92060205078125,1.3746733194679022,-2.304397762851417,6.993557157340645,-0.1596187949180603,0.6948062181472778,0.1688840240240097,jumping
1783087065088647200,3.930647216796875,1.805555384016037,-2.8615651971444485,7.376308520448207,-0.2831930220127105,1.0532480478286743,0.0153271555900573,jumping
1783087065098691300,3.94069140625,2.5074884321182966,-3.4516175406903025,7.674424036538601,-0.3560368716716766,1.2773014307022097,-0.123238980770111,jumping
1783087065108735000,3.95073486328125,3.0616508393764494,-3.493648756211996,7.713541994962096,-0.3449590504169464,1.4272159337997437,-0.2475649118423462,jumping
1783087065118780200,3.9607802734375,3.698208036726713,-3.2598931918293235,7.8284145748108624,-0.2611371278762817,1.508039116859436,-0.3742642700672149,jumping
1783087065128824300,3.97082421875,4.310426911634207,-2.9532769738972187,8.052337311965227,-0.1226327717304229,1.496392846107483,-0.4683193862438202,jumping
1783087065138869200,3.980869140625,4.667061252188682,-2.5176152738571167,8.306973167291282,0.0712631940841674,1.4992318153381348,-0.5189050436019897,jumping
1783087065150796300,3.99279638671875,4.642711531569064,-1.9968230751506983,8.408040509149432,0.138577789068222,1.606412649154663,-0.5549365282058716,jumping
1783087065160840200,4.002840087890625,4.372966369916498,-1.5812285961054264,9.135585552892088,-0.0155712533742189,1.6623735427856443,-0.5702104568481445,jumping
1783087065170885000,4.012885009765625,4.01051779012531,-1.804315759218484,10.133708701980114,-0.2664965987205505,1.6111125946044922,-0.5779863595962524,jumping
1783087065180929300,4.02292919921875,3.731821260254085,-1.970752814348787,10.605705451726912,-0.4572084248065948,1.3942396640777588,-0.5500119924545288,jumping
1783087065190974200,4.03297412109375,3.60497299592942,-1.8563425913147624,10.429221926617622,-0.4828754365444183,1.0513681173324585,-0.4808350503444671,jumping
1783087065201018000,4.04301806640625,3.4648104920014737,-1.754529399525374,9.500096325910093,-0.3478356003761291,0.6664148569107056,-0.3833114206790924,jumping
1783087065211063000,4.05306298828125,3.1673008328497407,-1.7402143123164773,8.424340486565232,-0.078684315085411,0.3333022594451904,-0.3206402957439422,jumping
1783087065221107200,4.063107177734375,2.9607684986963867,-1.7679089594498276,7.853623250347376,0.1952817291021347,0.0939983204007148,-0.3031494617462158,jumping
1783087065231151000,4.073151123046875,3.0987600883260367,-1.7361882716707884,8.070826323857903,0.3783807158470154,-0.0793675333261489,-0.3000982999801636,jumping
1783087065241196000,4.083196044921875,3.2597681041449307,-1.5564916297338902,8.64316736188531,0.4360013008117676,-0.2077184468507766,-0.2671504914760589,jumping
1783087065251240200,4.093240234375,3.27142522419095,-1.019206122996658,9.482392911437154,0.3658986687660217,-0.3610169291496277,-0.2265657633543014,jumping
1783087065261285400,4.103285400390625,3.684415073695779,-0.7626821158364415,10.364870742738246,0.1846170127391815,-0.6795762777328491,-0.2420664280653,jumping
1783087065271329300,4.113329345703125,3.6367215946286913,-0.1592478742785751,10.124323618519306,-0.0196863748133182,-0.9546346068382264,-0.2508798539638519,jumping
1783087065281373200,4.123373291015625,1.7602739345267413,0.8470233638212085,9.000938012993336,-0.2172756642103195,-1.0828756093978882,-0.2641949355602264,jumping
1783087065291418000,4.133418212890625,-0.3932657428592443,1.3247405370414256,8.003253255322575,-0.3556313812732696,-1.1490432024002075,-0.3672275841236114,jumping
1783087065301462300,4.143462158203125,-1.971828188495338,2.024233644645661,5.852520744311809,-0.3711711466312408,-1.0787553787231443,-0.2632040679454803,jumping
1783087065311507200,4.153507080078125,-2.4769880799144506,3.718027420440316,3.4194705903232094,-0.3899123668670654,-1.0555208921432495,0.0890085846185684,jumping
1783087065321551000,4.163551025390625,-1.6674468900084494,5.574236302372813,-0.3940115927904844,-0.4742485284805298,-0.8676987886428833,0.5614061951637268,jumping
1783087065331596000,4.173595947265625,3.307708835971355,6.581240092530846,-4.317895347818732,-0.4816899001598358,-0.534328818321228,1.107908010482788,jumping
1783087065341640200,4.18364013671875,4.188050532026589,6.242623639225959,-10.697836622935531,-0.6250061988830566,0.5699968934059143,1.5597634315490725,jumping
1783087065351684000,4.19368408203125,-1.9118465980023145,3.0155498901978133,-17.272850972819327,-0.6790148019790649,2.155770063400269,1.33065664768219,jumping
1783087065361729000,4.20372900390625,-3.6628985306754704,-0.5223652932420373,-16.751342880928515,-0.6159545183181763,2.9286184310913086,0.8225715756416321,jumping
1783087065371773200,4.213773193359375,-3.4697608078852293,-1.0556348423361777,-13.409846341645716,-0.4648737013339996,3.1123087406158447,0.5448606014251709,jumping
1783087065381818400,4.223818359375,-5.39768088107109,-0.3698427816957235,-11.797890452712773,-0.2406504452228546,2.809763193130493,0.1090092435479164,jumping
1783087065391862300,4.2338623046875,-4.352687259736657,-1.8785560305580495,-8.494463239583373,-0.1509185284376144,1.9771554470062256,-0.3141500353813171,jumping
1783087065401906200,4.24390625,-3.874383518800139,-2.8254949358537793,-8.941597935274244,-0.3212786614894867,1.509259819984436,-0.6169798374176025,jumping
1783087065411951400,4.253951416015625,-4.161151126924157,-2.8877330731019377,-10.98262854707241,-0.4377301633358001,1.1419934034347534,-0.9257776141166688,jumping
1783087065421995300,4.263995361328125,-2.658555191898346,-3.504406589330733,-10.02692356699705,-0.3757501542568207,0.5114302635192871,-1.0884474515914917,jumping
1783087065432040200,4.274040283203125,-1.626803913974762,-3.6340772175997498,-9.34461350325346,-0.1489462703466415,-0.2706605195999145,-1.1475281715393066,jumping
1783087065442084000,4.284083984375,-2.3142304439492523,-3.4011455368205903,-9.027155573311449,0.1894296556711197,-1.0186439752578735,-1.2007063627243042,jumping
1783087065452128300,4.294128173828125,-2.7727444656580684,-3.4240354140207168,-7.872386987528205,0.6014827489852905,-1.7451069355010986,-1.281633734703064,jumping
1783087065462173200,4.304173095703125,-2.227752476196736,-3.4870860366955396,-6.16440525803566,0.9510521292686462,-2.311370849609375,-1.3551914691925049,jumping
1783087065472217000,4.314217041015625,-1.7315195492073892,-3.1790327716976403,-5.635251035305857,0.9826430678367616,-2.445413589477539,-1.3021618127822876,jumping
1783087065482262000,4.324261962890625,-0.3153495594859123,-2.184664006707072,-6.633029901000857,0.6592860817909241,-2.134046792984009,-1.067090630531311,jumping
1783087065492306200,4.33430615234375,0.8590554546594619,-0.5312966415859759,-7.916399147734046,0.2221686542034149,-1.5694491863250732,-0.6171652674674988,jumping
1783087065502351400,4.344351318359375,0.8428457858756184,1.045562507263571,-10.51993738580942,-0.1381855010986328,-0.7680460214614868,-0.1938698142766952,jumping
1783087065513023500,4.3550234375,-0.5042126736968755,2.757493997295201,-12.14124445593357,-0.229006752371788,-0.0701353773474693,0.19956935942173,jumping
1783087065523067600,4.365067626953125,-2.194079193045199,1.9746566899195312,-12.37116497219801,-0.0811792090535163,0.3570817410945892,0.4074445366859436,jumping
1783087065533112600,4.375112548828125,-2.906221500472724,0.6054243924617767,-12.483552164971828,0.0956782177090644,0.5093806982040405,0.5279383063316345,jumping
1783087065543156700,4.38515673828125,-3.175191001577675,-0.576343697797507,-12.722004362738131,0.1647174656391143,0.3582988083362579,0.5804609060287476,jumping
1783087065553201700,4.39520166015625,-3.190197432051599,-1.0827424833618104,-13.973942698419092,0.1309526711702346,0.0827736482024192,0.5157306790351868,jumping
1783087065563245600,4.40524560546875,-3.151801942683756,-0.8877690695770084,-15.699033968144654,0.1010594815015792,-0.1342417597770691,0.3469344675540924,jumping
1783087065573290500,4.41529052734375,-3.9225361398115752,-0.0437875576697289,-17.760840241467953,0.1309695094823837,-0.0498346909880638,0.0888503640890121,jumping
1783087065583334700,4.425334716796875,-4.85730471484214,1.3101495555005966,-19.04799602100253,0.2254526019096374,0.283818632364273,-0.2607885897159576,jumping
1783087065593378600,4.435378662109375,-5.191041871672868,1.7563080996356903,-18.48847530158162,0.3483757972717285,0.7220905423164368,-0.6652781367301941,jumping
1783087065603423500,4.445423583984375,-4.901869832755625,1.9760629034556447,-16.34588108884096,0.3486199975013733,1.1877857446670532,-1.014193773269653,jumping
1783087065613467600,4.455467529296875,-4.200228168815374,1.6770710429221392,-13.30454121608734,0.1938495188951492,1.5921435356140137,-1.2978726625442505,jumping
1783087065623512600,4.4655126953125,-3.3627184832707044,1.2373742421470582,-10.23840007955432,-0.0504169426858425,1.8803858757019043,-1.470289945602417,jumping
1783087065633556500,4.475556396484375,-2.9066677829355,1.2877967077866197,-7.052765133112668,-0.2631330490112304,2.002143383026123,-1.4404088258743286,jumping
1783087065643600600,4.4856005859375,-2.244336969642341,2.2886757314540445,-3.5087206531375643,-0.3727671504020691,1.9276880025863647,-1.1886916160583496,jumping
1783087065653645600,4.4956455078125,-1.0017183971010148,2.9234757098734376,-0.0343482598036527,-0.4336206018924713,1.59152090549469,-0.7915511131286621,jumping
1783087065663689700,4.505689697265625,-0.2639893746048212,2.428529315563291,2.4490952798604964,-0.3916699588298797,1.1197714805603027,-0.4446890652179718,jumping
1783087065673734700,4.515734619140625,0.0589637917526066,1.0358686501145362,3.981985815384984,-0.2287877053022384,0.7095287442207336,-0.237733781337738,jumping
1783087065683778600,4.525778564453125,-0.0653887102335691,0.188770175230503,5.806680784156918,-0.0108444578945636,0.3630900979042053,-0.0822919830679893,jumping
1783087065693822700,4.53582275390625,-0.6699491793423891,-0.379685253535211,8.796810694155097,0.2082137763500213,-0.0993341505527496,-0.029017049819231,jumping
1783087065703867600,4.54586767578125,-1.0261937899269162,-0.5421896453917027,11.915237898242474,0.3391065299510956,-0.6540303826332092,-0.0402473323047161,jumping
1783087065713911600,4.55591162109375,-0.5795812184140086,0.197958128684014,14.757131887972356,0.3337311446666717,-1.294150471687317,0.0751956775784492,jumping
1783087065723956500,4.56595654296875,0.5306934149958193,1.1049743350446224,16.41240669414997,0.1971871256828308,-1.92387592792511,0.3286188840866089,jumping
1783087065734000600,4.576000732421875,1.486074131552875,1.5894648017920552,16.344344965314864,0.0346122831106185,-2.358537435531616,0.5826153755187988,jumping
1783087065744044500,4.58604443359375,2.1331445396110413,1.3435536663219332,15.171763659465311,-0.1363314986228943,-2.483250379562378,0.7239559888839722,jumping
1783087065754089500,4.59608935546875,2.780600732116401,0.5512298609375953,13.77562143551111,-0.2289192229509353,-2.345604658126831,0.7576661109924316,jumping
1783087065764133600,4.606133544921875,3.4472187212094663,-0.079533993833512,12.716678199279308,-0.1777101010084152,-2.0960748195648193,0.7316529154777527,jumping
1783087065774178600,4.616178466796875,3.845432441864907,-0.5480190821975469,11.850984914040565,-0.0029634095262736,-1.7722629308700562,0.6948191523551941,jumping
1783087065784222700,4.62622265625,3.9032083390071985,-0.5212145157717168,10.705427224195002,0.1745221614837646,-1.2629072666168213,0.7196674942970276,jumping
1783087065794267600,4.636267578125,3.9615307641163464,-0.2612514740735292,9.134201405057311,0.261362761259079,-0.5430304408073425,0.7918654680252075,jumping
1783087065804311600,4.6463115234375,3.8370486444011327,-0.5398045038208366,7.96178434985876,0.2654198408126831,0.2070366442203521,0.8320070505142212,jumping
1783087065814355700,4.656355712890625,3.566122456270456,-1.2284471315868195,7.510797654914856,0.2268563359975814,0.9015830159187316,0.8038220405578613,jumping
1783087065824400600,4.666400634765625,2.932671408241987,-1.93900933021605,7.256959671968222,0.1801018863916397,1.5010687112808228,0.732037365436554,jumping
1783087065834444500,4.676444580078125,2.1726976745814084,-2.677929754453898,6.932454746124148,0.1678804904222488,2.0345029830932617,0.596429705619812,jumping
1783087065844489500,4.686489501953125,1.8319424556821584,-3.1608652468442915,6.879585910245776,0.1433786153793335,2.352952003479004,0.4134657979011535,jumping
1783087065854533600,4.69653369140625,1.8280168066710232,-3.209067259955406,7.110788283014297,0.0364822223782539,2.389001846313477,0.2244918942451477,jumping
1783087065864577500,4.70657763671875,1.911394178059697,-3.167434688362479,7.70709939469397,-0.102785125374794,2.179110288619995,0.0710469335317611,jumping
1783087065874622500,4.71662255859375,2.1043945382058618,-3.482158224904537,8.386482172814011,-0.1846567243337631,1.7944657802581787,-0.0484552420675754,jumping
1783087065884666600,4.72666650390625,2.077154356841743,-3.7477205479145046,8.543626791203021,-0.1890104711055755,1.3620424270629885,-0.1470891535282135,jumping
1783087065894711600,4.736711669921875,1.662956592851877,-3.859205238890647,8.504860714957118,-0.124021790921688,0.9975142478942872,-0.2540273070335388,jumping
1783087065904755700,4.746755615234375,1.2406461034245788,-3.6826308206275105,8.489488373780251,-0.0292862243950366,0.7194011807441711,-0.3519027531147003,jumping
1783087065914800600,4.756800537109375,1.1422321986846624,-3.315046339252591,8.512201140847802,0.0751743093132972,0.5275749564170837,-0.428873211145401,jumping
1783087065924844500,4.766844482421875,1.6359768159896135,-2.816423448386788,8.753633231207727,0.1453645825386047,0.3776632249355316,-0.4461770951747894,jumping
1783087065934888700,4.776888671875,2.211062622680515,-1.9120387595735489,9.37909620309174,0.1297272145748138,0.1628553867340088,-0.3331532180309295,jumping
1783087065944933600,4.78693359375,2.613098678103089,-1.5382280971601603,9.932135159277916,0.076296217739582,-0.0947114378213882,-0.1766770929098129,jumping
1783087065954977500,4.7969775390625,2.885184849923849,-1.6323388978786766,10.297337421691417,0.0227157715708017,-0.4486409723758697,-0.050478272140026,jumping
1783087065965022500,4.8070224609375,3.3300364031136036,-1.651880779825151,10.27347606911063,0.0059964470565319,-0.8683018684387207,0.0367802008986473,jumping
1783087065975066600,4.817066650390625,3.691251057195663,-1.3875219873860478,9.788103120440244,0.0296584498137235,-1.3417928218841553,0.1160853803157806,jumping
1783087065985110500,4.827110595703125,3.6202772403061383,-0.6985657636262476,9.305937443378568,0.111305370926857,-1.92489492893219,0.202206939458847,jumping
1783087065995155500,4.837155517578125,3.082275694254041,0.1300432609736919,8.639109610927104,0.2853527963161468,-2.5480618476867676,0.2706680595874786,jumping
1783087066005199600,4.84719970703125,1.5026786448732017,0.6264959681935608,7.820438773626089,0.5614384412765503,-3.199964761734009,0.343673825263977,jumping
1783087066015244800,4.857244873046875,-0.3653834641993045,1.1966760287947953,6.719964672610163,0.8672982454299927,-3.7087674140930176,0.4186846911907196,jumping
1783087066025288700,4.867288818359375,-0.5481117289170623,2.0903524227194485,4.95243068395257,1.0955256223678589,-3.902904272079468,0.5327684283256531,jumping
1783087066035332600,4.87733251953125,0.4767702477589249,3.0231407837182283,3.5053508844435215,1.1814762353897097,-3.935128688812256,0.8125482797622681,jumping
1783087066045377500,4.88737744140625,2.2545710711479185,4.069423568080365,2.513912327685952,1.0296920537948608,-4.041370391845703,1.07445228099823,jumping
1783087066055421700,4.897421630859375,2.1546873861163856,4.520981633171439,0.614198650547862,0.7066962718963623,-4.061591625213623,1.473219871520996,jumping
1783087066065466600,4.907466552734375,-1.971108057527244,5.531379157420993,-2.5500205828994513,0.4999595582485199,-3.7174630165100098,2.084388732910156,jumping
1783087066075510500,4.917510498046875,-7.23336953754425,5.580159262681007,-5.987989537465572,0.4626680612564087,-2.9149889945983887,2.459228754043579,jumping
1783087066085555500,4.927555419921875,-11.7641951038599,2.2380558435462414,-12.571359043240546,-0.0915123149752616,-0.999528467655182,2.4375696182250977,jumping
1783087066095599600,4.937599609375,-14.451291330587862,0.268206407777965,-24.066253222084043,-1.4753397703170776,2.6228690147399902,2.060471296310425,jumping
1783087066105643500,4.9476435546875,-8.913324611470102,1.697597698122263,-27.199989638984203,-1.8658649921417236,5.234920978546143,1.6954822540283203,jumping
1783087066115688400,4.9576884765625,-4.587978947645426,4.052148315891623,-18.96658731933832,-0.7183586955070496,5.736697196960449,1.7924292087554932,jumping
1783087066125732600,4.967732666015625,-4.640477196645737,5.3295899261415,-12.75029756028652,0.4550727307796478,5.299805641174316,1.8088300228118896,jumping
1783087066135777800,4.97777783203125,-4.446932062098384,3.6605566437244415,-8.444919164213537,0.8686493039131165,4.52254581451416,1.534282684326172,jumping
1783087066145821700,4.98782177734375,-2.614386379826069,1.733140720668435,-5.390395984759927,0.8623618483543396,3.7406837940216064,1.1870955228805542,jumping
1783087066155865600,4.997865478515625,-0.7903649264015257,0.8076695508152246,-2.5708652180075644,0.5913397073745728,3.0214059352874756,0.8966622352600098,jumping
1783087066165910800,5.007910888671875,-1.3925347009815274,-1.629395391772687,0.2332084518939256,0.3811196386814117,2.156747817993164,0.3490105867385864,jumping
1783087066175954700,5.01795458984375,-3.1189068042978643,-4.989967510664463,2.036336901023984,0.3452728688716888,1.1233593225479126,-0.3905874788761139,jumping
1783087066185999600,5.02799951171875,-4.279066727730632,-6.7202902513027185,2.7682611827641725,0.4237959086894989,-0.2146335840225219,-1.1421040296554563,jumping
1783087066196043500,5.03804345703125,-4.116107577843964,-7.055831534945964,2.3979116205900906,0.6328832507133484,-1.684528112411499,-1.7629482746124268,jumping
1783087066206087700,5.048087646484375,-3.644294075709581,-5.75235064355433,-0.2149544178009033,0.7820272445678711,-2.6894941329956055,-2.1226043701171875,jumping
1783087066216132600,5.058132568359375,-3.2580437645703553,-3.59119961438179,-2.6116543245136734,0.6860432624816895,-3.285006046295166,-2.2091524600982666,jumping
1783087066226176500,5.068176513671875,-2.311278462275862,-1.546232978308946,-4.960579503616691,0.389439582824707,-3.235032558441162,-2.1394941806793213,jumping
1783087066236221400,5.078221435546875,-2.1776877379536628,-0.6338793564431369,-8.033178437986969,0.0046290410682559,-2.379129648208618,-1.8835598230361936,jumping
1783087066246265600,5.088265625,-2.4168843243464826,-0.6351489379875361,-9.25902839268744,-0.3571222424507141,-1.3531049489974976,-1.5329885482788086,jumping
1783087066256309500,5.0983095703125,-2.1527000116914508,-0.2584792328812181,-9.125192169171571,-0.6504956483840942,-0.386679857969284,-1.1416590213775637,jumping
1783087066266354700,5.108354736328125,-2.0710566244885324,0.2236164476841688,-9.62120750788748,-0.8445426225662231,0.5429580211639404,-0.7004669904708862,jumping
1783087066276398600,5.118398681640625,-2.647010007794201,0.2931513178117573,-9.856317994010448,-0.7989257574081421,1.4258204698562622,-0.3396157920360565,jumping
1783087066286443800,5.12844384765625,-3.468148404252529,0.7086728777512907,-9.013764176818729,-0.6255659461021423,2.034632444381714,-0.0868882238864898,jumping
1783087066296487700,5.13848779296875,-3.883673617453873,0.9006536855913698,-8.043412247231602,-0.567262589931488,2.2558746337890625,0.0905009284615516,jumping
1783087066306532600,5.14853271484375,-3.9391394840881224,1.147846677565575,-7.74385997633636,-0.8141093850135803,2.0295562744140625,0.3416961431503296,jumping
1783087066316576800,5.15857666015625,-4.1537388048410415,1.049877301722765,-9.524656766670942,-1.3297057151794434,1.529131531715393,0.6493486762046814,jumping
1783087066326620700,5.16862060546875,-4.7989171155422925,0.1727513528436422,-13.206723815935849,-1.7339760065078735,1.1153875589370728,0.813619077205658,jumping
1783087066336665600,5.17866552734375,-5.001447520577908,0.206422444038093,-17.119521528804302,-1.7334067821502686,0.8701338171958923,0.7853652238845825,jumping
1783087066346709500,5.18870947265625,-4.418128576940298,1.466965234196186,-19.625338812839985,-1.10923433303833,0.8048802018165588,0.6543022990226746,jumping
1783087066356754400,5.19875439453125,-3.947603653311729,2.8545675933420656,-20.38570826781988,-0.032513178884983,1.0503625869750977,0.4678862392902374,jumping
1783087066366798600,5.208798583984375,-3.4786510935664174,3.762272804880142,-17.35542754921913,0.6246945261955261,1.2772620916366575,0.2478502839803695,jumping
1783087066376842500,5.218842529296875,-2.666190216821432,3.7362867152303454,-11.995471710908411,0.5319570302963257,1.188304781913757,-0.0903936401009559,jumping
1783087066386887400,5.228887451171875,-1.7252056898854673,3.957673504166305,-7.617400419068336,0.0401672832667827,0.7882058024406433,-0.3706972002983093,jumping
1783087066396931600,5.238931640625,-0.9899892347320912,5.215962377917767,-4.790327566373348,-0.4262128472328186,0.1736215054988861,-0.4370224475860595,jumping
1783087066406976800,5.248976806640625,0.1629799004137516,6.180823308873176,-2.5809230861634016,-0.5430989861488342,-0.6008180379867554,-0.3241989612579345,jumping
1783087066417020700,5.259020751953125,1.4658644333474338,5.809536173588037,-1.123677281948924,-0.273866057395935,-1.2402931451797483,-0.1861605048179626,jumping
1783087066427064600,5.269064697265625,2.7446529281616208,4.50304762481302,0.3522416585534811,0.160119742155075,-1.5071228742599487,-0.1212448999285698,jumping
1783087066437109800,5.27910986328125,4.151865412184596,3.126743781533837,2.14085935177207,0.5169882774353027,-1.3239182233810425,-0.0895540416240692,jumping
1783087066447153700,5.289153564453125,5.153333780047297,1.9187807811796664,5.030080909866094,0.6276500821113586,-1.0547364950180054,-0.0356945395469665,jumping
1783087066457198600,5.299198486328125,4.988412682437897,1.2041978026017546,8.655133109489082,0.5735222101211548,-0.9033005237579346,0.0820660889148712,jumping
1783087066467242800,5.30924267578125,3.489308973442018,0.5285720389276742,12.249345934212206,0.3978102803230285,-0.9771374464035034,0.2007152438163757,jumping
1783087066477286700,5.31928662109375,1.5554678396441042,-0.4706821600168943,16.056837352478503,0.1393802762031555,-1.3380979299545288,0.2457131743431091,jumping
1783087066487331600,5.32933154296875,0.0806494077295064,-1.970033706294,18.67458473317027,-0.1727608442306518,-1.8197969198226929,0.2257764786481857,jumping
1783087066497375700,5.339375732421875,-0.3864586931928992,-3.690162677437067,18.860466201221943,-0.4974654018878937,-2.1950535774230957,0.1274759322404861,jumping
1783087066507420400,5.34942041015625,0.6586366349503397,-4.405497058904171,17.417411419445276,-0.7302680611610413,-2.328195810317993,0.0148729532957077,jumping
1783087066517464300,5.35946435546875,2.0903516920670864,-3.70037661293745,14.510552497851847,-0.7425962686538696,-2.1540942192077637,-0.0181943383067846,jumping
1783087066527509500,5.369509521484375,2.962497514446079,-2.4159797767221924,11.78885257525444,-0.5311340689659119,-1.6723825931549072,0.0127457343041896,jumping
1783087066537553700,5.3795537109375,3.4315447667375203,-1.5648960315942764,10.043675964355469,-0.277589201927185,-0.9621124267578124,0.0907651931047439,jumping
1783087066547597300,5.389597412109375,3.8642622300192713,-1.460342601186037,9.314040085813405,-0.1420460194349289,-0.2266559898853302,0.1734757870435714,jumping
1783087066557642500,5.399642578125,4.107295033574104,-1.5456132389754056,8.961832914051413,-0.1765165030956268,0.4232241809368133,0.2383848577737808,jumping
1783087066567686700,5.409686767578125,3.727850895318389,-1.448917244069278,7.98340113838315,-0.2879564762115478,1.0681874752044678,0.2860469222068786,jumping
1783087066577731300,5.4197314453125,3.1075133036240934,-1.55225369990319,6.775996940955519,-0.3920654356479645,1.655820608139038,0.2683154344558716,jumping
1783087066587775500,5.429775390625,2.5489284037485715,-2.055698019576073,5.62791587011218,-0.4362989366054535,2.1907873153686523,0.1735982298851013,jumping
1783087066597819400,5.4398193359375,2.241281381464004,-2.6770883351936936,4.711033080384135,-0.4428324103355407,2.657416820526123,0.0453759059309959,jumping
1783087066607864300,5.4498642578125,2.19411426435858,-3.2374002049922943,4.489831292626262,-0.4213982224464416,2.9658710956573486,-0.0821761935949325,jumping
1783087066617908500,5.459908447265625,2.243919621013105,-3.8742332966744897,4.91567010231018,-0.3346311748027801,3.083702564239502,-0.2043017596006393,jumping
1783087066627953400,5.469953369140625,2.0541160110816357,-4.585515187880397,5.8690258889108895,-0.1896926313638687,3.0303292274475098,-0.3401024937629699,jumping
1783087066637997300,5.479997314453125,1.761921409472823,-5.205004930573701,7.467137376886606,-0.0720712393522262,2.817368984222412,-0.4779430627822876,jumping
1783087066648041500,5.49004150390625,1.471404824078828,-5.414626170653104,8.878253882610798,-0.0267727356404066,2.478037595748902,-0.5971781015396118,jumping
1783087066658086700,5.500086669921875,1.0199950814172625,-5.3036009138822555,9.530508999830484,-0.0451360717415809,2.1398961544036865,-0.711491048336029,jumping
1783087066668130300,5.51013037109375,0.640498190061003,-4.783330547092855,10.011478160583971,-0.120607390999794,1.747895121574402,-0.7522464394569397,jumping
1783087066678175500,5.520175537109375,0.6984864878449588,-4.109179532146453,10.345443573212624,-0.2506878972053528,1.2349903583526611,-0.672041654586792,jumping
1783087066688219600,5.5302197265625,0.9068111853078008,-3.890674143865704,9.958391882562635,-0.3781158924102783,0.677402675151825,-0.5707395672798157,jumping
1783087066698263300,5.54026318359375,1.2663754418343305,-3.6873885365486143,9.105571522900462,-0.3601046204566955,0.1485704630613327,-0.432464450597763,jumping
1783087066708308500,5.55030859375,1.5466691777691244,-3.384164591403305,8.28868113927543,-0.1492930650711059,-0.3409669995307922,-0.2860845923423767,jumping
1783087066718352600,5.5603525390625,1.5835981017157434,-3.156608758443594,7.8098098275840275,0.1718405783176422,-0.7520126104354858,-0.1877002716064453,jumping
1783087066728397300,5.570397216796875,1.4586609317094086,-2.8661478487595913,7.806423107755184,0.4981175065040588,-1.1015121936798096,-0.1612761318683624,jumping
1783087066738441500,5.58044140625,1.1794785180173817,-2.337042725868523,8.227534304395318,0.7692880034446716,-1.4151363372802734,-0.1817765831947326,jumping
1783087066748486400,5.590486328125,0.3267120804995298,-1.606300055128336,8.48618582510352,0.952095627784729,-1.6255340576171875,-0.1608340293169021,jumping
1783087066758530300,5.6005302734375,-1.1344915214300155,-0.5572141960442066,8.091674466097354,0.9499893188476562,-1.675455093383789,-0.0512131825089454,jumping
1783087066768574500,5.610574462890625,-1.5672589613333343,0.6948381214052438,7.451553438785672,0.7707585692405701,-1.727026104927063,0.1279866695404052,jumping
1783087066778619600,5.62061962890625,-1.1959091360755263,1.9488629079714417,5.866213754099607,0.4859741330146789,-1.848596215248108,0.4058455228805542,jumping
1783087066788663300,5.630663330078125,-0.2263110935956239,3.454884433531761,3.242657394868135,0.3042056858539581,-1.8714230060577393,0.6814834475517273,jumping
1783087066798708500,5.64070849609375,2.887935902197659,3.67877063806802,1.5254261909931897,0.3174152970314026,-1.7890708446502686,0.9054586291313172,jumping
1783087066808752600,5.650752685546875,0.4814226036094128,4.191776274551451,-3.056439242208004,0.3172480463981628,-1.0022401809692385,1.3190704584121704,jumping
1783087066818796300,5.66079638671875,-7.746374589505791,5.779516298377514,-8.75788387438953,0.2254886776208877,0.8499793410301208,1.9507691860198977,jumping
1783087066828841500,5.670841552734375,-10.680631805634498,6.414507561585307,-15.172106189292668,0.1178682073950767,3.432851076126098,1.5147945880889893,jumping
1783087066838885600,5.6808857421875,2.334411208321154,2.2577567154467104,-20.820026736557484,-1.141304612159729,6.274437427520752,1.2101144790649414,jumping
1783087066848930300,5.690930419921875,7.890107937657833,-0.1282300740718841,-18.8160401995182,-2.178499460220337,6.810660362243652,1.3319638967514038,jumping
1783087066858974500,5.700974365234375,6.821963157838582,1.8064046943217515,-11.38452007945776,-1.799017310142517,5.143409729003906,1.369451642036438,jumping
1783087066869018600,5.7110185546875,0.748503368358314,-0.592402413803339,-9.96069723689556,-0.0751446634531021,2.5006752014160156,1.2338178157806396,jumping
1783087066879063300,5.721063232421875,-3.1476591437906025,-3.774115802887082,-6.425348104551434,1.705979585647583,-0.3916171491146087,0.858517587184906,jumping
1783087066889107500,5.731107421875,-4.256578417068719,-4.465215030024946,-3.5294197422951457,2.4308109283447266,-2.668445348739624,0.3291645348072052,jumping
1783087066899152600,5.741152587890625,-4.692008354179561,-4.942925188982486,-2.9839748944997786,2.173752784729004,-3.826838493347168,-0.3524673283100128,jumping
1783087066909196300,5.7511962890625,-4.112527673530578,-3.770051914449036,-1.8115987558335065,1.4448606967926023,-4.313168048858643,-0.8700982332229614,jumping
1783087066919240400,5.761240478515625,-3.298008110690117,-2.9371614131376145,-1.3723837472259997,0.8826225996017456,-4.4590044021606445,-1.2033406496047974,jumping
1783087066929285600,5.77128564453125,-2.2405238410949706,-3.0547198710694907,-1.3635071978092193,0.6534115672111511,-4.440149307250977,-1.4152190685272217,jumping
1783087066939329300,5.781329345703125,-2.200027726186067,-4.136925617206097,-2.1494968317359686,0.4912240207195282,-4.264317512512207,-1.694433093070984,jumping
1783087066949374500,5.79137451171875,-3.088329587465525,-5.000732065784931,-4.0950861248642205,0.1453387886285781,-3.827632427215576,-1.9874836206436155,jumping
1783087066959418600,5.801418701171875,-3.973248089917004,-2.2883237031459807,-7.876089349177479,-0.5762322545051575,-2.688138008117676,-1.9554396867752075,jumping
1783087066969462300,5.811462158203125,-3.644645373365283,1.4672139482602475,-11.273930876016616,-1.5827113389968872,-1.1259220838546753,-1.5683305263519287,jumping
1783087066979507500,5.821507568359375,-1.6624968663856383,3.743049633494019,-14.509628953266144,-2.359851121902466,0.5679556131362915,-1.0278708934783936,jumping
1783087066989551600,5.831551513671875,1.0066925322517752,5.783368297630548,-14.646847804957629,-2.228717565536499,1.6966233253479004,-0.2996881306171417,jumping
1783087066999596300,5.84159619140625,0.936725262056291,5.630336959779262,-15.222433523994685,-1.275611400604248,2.582056999206543,0.4138765633106231,jumping
1783087067009640400,5.851640380859375,-1.1225409713953731,2.850703026868403,-14.294536588299271,-0.1742664128541946,2.8405673503875732,0.8083761930465698,jumping
1783087067019685600,5.861685546875,-3.528597319996357,0.5490402419388294,-11.987785248059032,0.5013813376426697,2.4382436275482178,0.8609773516654968,jumping
1783087067029729300,5.871729248046875,-5.196330625730752,-0.7027429031804203,-10.686680438148974,0.5914521217346191,1.6979368925094604,0.6686230897903442,jumping
1783087067039773400,5.8817734375,-5.1756549174487585,-0.9086901309221982,-9.977830742526054,0.1779516786336898,0.6803212761878967,0.4563910365104675,jumping
1783087067049818600,5.891818603515625,-4.193650543990731,-0.067602586890757,-11.538398974049093,-0.3478721678256988,-0.1174056828022003,0.3200550377368927,jumping
1783087067059862300,5.9018623046875,-3.2530805892050263,1.167172724804282,-13.936453802502154,-0.5571765899658203,-0.5229873657226562,0.2449265867471695,jumping
1783087067069907500,5.911907470703125,-2.941279077589512,2.4321070279195904,-14.88117795435786,-0.4765320718288421,-0.6938086152076721,0.1786042898893356,jumping
1783087067079951600,5.92195166015625,-3.256242268106341,3.1224586515605446,-14.679519071459769,-0.3397749960422516,-0.5860532522201538,0.051626268774271,jumping
1783087067089995300,5.931995361328125,-3.775292445451021,3.3765073546484112,-13.946604609638452,-0.3321748673915863,-0.1468995809555053,-0.1544331610202789,jumping
1783087067100040400,5.94204052734375,-4.0057121434092515,3.7935686913758513,-12.884497940939664,-0.5108445286750793,0.5137040615081787,-0.4103534519672394,jumping
1783087067110084600,5.952084716796875,-3.192252026493847,4.294485830658674,-11.0055488194108,-0.707606852054596,1.1483060121536257,-0.6646237969398499,jumping
1783087067120129300,5.96212939453125,-2.1833600845016536,4.104259026879072,-8.563240423211456,-0.7223258018493652,1.488900661468506,-0.9214413166046144,jumping
1783087067130173400,5.97217333984375,-1.3296265555173157,3.664277710074186,-5.779018285727501,-0.5277491211891174,1.4863466024398804,-1.2010806798934937,jumping
1783087067140217600,5.982217529296875,-0.5335423746861517,3.748885792301595,-3.0528280659735203,-0.2431251108646392,1.3004202842712402,-1.394421100616455,jumping
1783087067150262300,5.99226220703125,0.3280480052784085,4.012788365405798,-0.2495557755827903,-0.0216558258980512,0.9799594283103944,-1.437739014625549,jumping
1783087067160306400,6.002306396484375,1.35239017598927,3.3697853529170154,3.064976768928766,0.0377421230077743,0.4841893017292022,-1.3405815362930298,jumping
1783087067170351600,6.0123515625,2.2256734779655933,2.0441022743284702,5.800598833894729,0.0292439758777618,-0.050544686615467,-1.1971304416656494,jumping
1783087067180395300,6.022395263671875,2.5767083910778164,0.623064970831573,7.686037317442893,-0.0196271613240242,-0.5725793242454529,-1.0465961694717407,jumping
1783087067190439400,6.032439453125,2.7570219958692785,-0.5023658767864108,8.974442804777622,-0.0315687768161296,-1.0739333629608154,-0.9163034558296204,jumping
1783087067200484600,6.042484619140625,3.2815923979401584,-1.288282737737894,10.437274300169944,0.095259740948677,-1.730996012687683,-0.7946369051933289,jumping
1783087067210528300,6.0525283203125,3.5433979987651107,-1.947616415041685,11.31051259396076,0.4002675712108612,-2.3909733295440674,-0.6963047385215759,jumping
1783087067220573400,6.062573486328125,3.3240883083641526,-2.244051138438284,11.454798315298556,0.8077762722969055,-2.878251075744629,-0.6113629937171936,jumping
1783087067230617600,6.07261767578125,3.139679250952601,-1.9799808075517416,11.939006896364688,1.2214584350585938,-3.2041077613830566,-0.4583387970924377,jumping
1783087067240661500,6.08266162109375,3.2345667351320384,-1.5830644332304595,12.581207068037989,1.5628321170806885,-3.2900211811065674,-0.220401182770729,jumping
1783087067250706400,6.09270654296875,3.719390525487065,-1.355758775639534,13.16103173981905,1.735037922859192,-3.1575748920440674,0.0724735707044601,jumping
1783087067260750600,6.10275048828125,4.089807599939405,-1.2155489254385232,13.926619806230068,1.676632046699524,-2.9398996829986572,0.386814147233963,jumping
1783087067270795300,6.112795166015625,4.008069520190358,-0.7319172674775123,13.96240423631668,1.3487036228179932,-2.524918794631958,0.6855406165122986,jumping
1783087067280839400,6.12283935546875,3.917765856669843,-0.5120195480555295,13.097468491446971,0.7979781627655029,-1.900485634803772,0.9368495941162108,jumping
1783087067290883600,6.132883544921875,4.267603961212933,-0.7367083011463285,11.534680245786904,0.1611287146806717,-1.1100187301635742,1.127591609954834,jumping
1783087067300928300,6.14292822265625,4.702237194988132,-1.0346534291058778,9.593984569919108,-0.4177818596363067,-0.2558380961418152,1.2402962446212769,jumping
1783087067310972400,6.152972412109375,4.580127649623155,-1.544789647632837,7.61549137057662,-0.7868267297744751,0.6122677326202393,1.240365982055664,jumping
1783087067321017600,6.163017578125,3.9386590070948,-1.8723551300913095,6.075774788424372,-0.8898811340332031,1.4169654846191406,1.180267333984375,jumping
1783087067331061200,6.173061279296875,2.8918977915659547,-2.159085621075332,5.342213260871172,-0.747253954410553,2.081425905227661,1.0458378791809082,jumping
1783087067341106400,6.1831064453125,2.0551804254427553,-2.9057056599050757,5.314948237326741,-0.452742725610733,2.5658559799194336,0.8029158711433411,jumping
1783087067351150600,6.193150634765625,1.8192036778792735,-3.760544958174228,5.945226500537991,-0.0849713683128357,2.860835075378418,0.517498791217804,jumping
1783087067361194500,6.203194580078125,1.8785428788155316,-4.328462919062376,7.043300554674864,0.2328649312257766,3.012483596801758,0.2581015229225158,jumping
1783087067371239400,6.213239501953125,2.1412398755222557,-4.38381918784231,8.396759821200371,0.3985947668552398,3.0309274196624756,0.0532892607152462,jumping
1783087067381283600,6.22328369140625,2.303160476141423,-4.06365316798538,9.699749714204668,0.3734050691127777,2.8926663398742676,-0.0907083973288536,jumping
1783087067391328300,6.233328369140625,2.2249600689992306,-3.708092009620368,10.481952815330027,0.2135131508111953,2.593606472015381,-0.177808403968811,jumping
1783087067401372400,6.243372314453125,2.0202270393528043,-3.46560982568562,10.826289984369277,-0.0670047998428344,2.1294989585876465,-0.1923876106739044,jumping
1783087067411416600,6.25341650390625,1.9411099557571112,-3.456710772176087,10.707190142214298,-0.3799771070480346,1.5914689302444458,-0.1369949281215667,jumping
1783087067421461200,6.263461181640625,1.7701074924074112,-3.453045819927752,9.969878906738758,-0.5670892596244812,1.073546051979065,-0.0240780804306268,jumping
1783087067431505400,6.27350537109375,1.5516427283979952,-3.234455968233943,8.794245227581262,-0.5392054319381714,0.6692445874214172,0.1049944162368774,jumping
1783087067441550600,6.283550537109375,1.5608739364713429,-2.975559240593016,7.744302459406852,-0.3348200023174286,0.2994826436042785,0.2152871489524841,jumping
1783087067451594200,6.29359423828125,1.680851438243687,-2.6411665424630044,7.164884030339121,-0.0129628702998161,-0.0315932892262935,0.297976940870285,jumping
1783087067461638400,6.303638427734375,1.7552895702429114,-2.4103189744815228,7.001542310875654,0.3896532654762268,-0.2774330973625183,0.3555509150028229,jumping
1783087067471683600,6.31368359375,1.6357935683771967,-2.160053881585598,6.912934637618064,0.7987896203994751,-0.345111221075058,0.4189216196537018,jumping
1783087067481727500,6.3237275390625,0.7751574203975499,-1.849431350621581,7.912101742801069,1.059032320976257,-0.4140314161777496,0.4716349840164184,jumping
1783087067491772400,6.3337724609375,-0.962568728365004,-1.2696502257212996,9.391883203950524,1.111056566238403,-0.4742753207683563,0.4708624184131622,jumping
1783087067501816600,6.343816650390625,-1.9594537139602004,-0.1664189349517226,9.234495424455403,0.905590832233429,-0.353009819984436,0.4972069859504699,jumping
1783087067511860500,6.353860595703125,-0.1355621705256402,1.3883154758512972,9.225659207049013,0.4856225848197937,-0.4104501903057098,0.6682860851287842,jumping
1783087067521905700,6.36390576171875,1.1275614299058914,4.320502315446734,7.00914109544158,-0.0550535507500171,-0.4523693919181824,1.0426404476165771,jumping
1783087067531949800,6.37394970703125,2.0709499492436647,6.0210945192098615,2.6675118208140134,-0.4514027535915375,-0.3525194823741913,1.3293792009353638,jumping
1783087067541994800,6.383994873046875,1.6882488550186157,5.522123837819695,-1.7934049274951218,-0.5334368944168091,-0.0285232588648796,1.5411760807037354,jumping
1783087067552038700,6.39403857421875,-1.8070232646115123,6.391264048641919,-9.926467635035516,-0.4163318574428558,1.492491602897644,2.099457025527954,jumping
1783087067562082800,6.404082763671875,-12.042544427728652,7.882550654146074,-22.657087850427622,0.1590959727764129,4.445051670074463,2.1543679237365723,jumping
1783087067572127500,6.41412744140625,-10.42139167138338,-0.763610044336319,-26.66875977902412,0.2539612352848053,7.149139404296875,0.770807683467865,jumping
1783087067582171600,6.424171630859375,1.6645894547507163,-6.8982233906984325,-23.61893732460737,-0.8564825654029846,8.699664115905762,0.0509782396256923,jumping
1783087067592216800,6.434216796875,11.030976690655946,-0.9321221521750092,-13.18978787870407,-1.7182573080062866,8.249227523803711,0.0945808514952659,jumping
1783087067602260500,6.444260498046875,10.028009608668087,1.8804022429466247,-8.007223912519216,-1.329945087432861,6.298900127410889,0.6792662143707275,jumping
1783087067612304600,6.4543046875,6.737426095020771,4.391159321472048,-7.031689027336239,-0.306758314371109,4.015110969543457,1.034533977508545,jumping
1783087067622349800,6.464349853515625,2.846786437946558,2.261435696220398,-11.98852057659626,0.5939657092094421,2.452714681625366,0.9339492917060852,jumping
1783087067632393500,6.4743935546875,1.2540399841353296,-0.5601937963768839,-9.40873380098641,1.1569055318832395,0.7782917618751526,0.7133002877235413,jumping
1783087067642438700,6.484438720703125,1.4145897347927092,-2.365142154410482,-6.845684225165844,1.1039907932281494,-0.5988959670066833,0.3658559024333954,jumping
1783087067652482800,6.49448291015625,1.127129468229413,-3.762226043128967,-5.003745276126265,0.8378720283508301,-1.8166805505752563,-0.0799340978264808,jumping
1783087067662527700,6.50452783203125,-0.0253746797531843,-4.624297630739211,-3.201478412261605,0.6712521314620972,-2.851997137069702,-0.5318304300308228,jumping
1783087067672571600,6.514571533203125,-1.5229438726581632,-3.951039765240252,-3.477756775075197,0.5399993062019348,-3.485002040863037,-0.9273868203163148,jumping
1783087067682615800,6.52461572265625,-1.8377884052313864,-1.6020871136084198,-5.065686476254463,0.2769787609577179,-3.405720472335815,-1.1742286682128906,jumping
1783087067692660700,6.53466064453125,-0.7597722197391092,1.5664049748525022,-5.976542845299839,0.2309673279523849,-2.9713988304138184,-1.0759841203689575,jumping
1783087067702704600,6.54470458984375,0.7248208794757723,3.3754116683661937,-5.48502014182806,0.1180241778492927,-2.417372941970825,-0.8502024412155151,jumping
1783087067712749800,6.554749755859375,1.9683108280241488,3.8800156794682144,-7.511680867490172,-0.3226853013038635,-1.7292548418045044,-0.6649808883666992,jumping
1783087067722793500,6.56479345703125,3.1459672451809046,5.071479088181257,-8.696854528409242,-0.7189960479736328,-0.9616979360580444,-0.40482959151268,jumping
1783087067732837600,6.574837646484375,3.3310435343295333,4.719202942836285,-9.58667103203535,-0.8229618668556213,-0.3263609409332275,-0.1464108377695083,jumping
1783087067742882800,6.5848828125,1.90578422922343,2.6403090488508343,-10.308630384600162,-0.5057300329208374,0.0938684418797493,-0.0546425729990005,jumping
1783087067752926500,6.594926513671875,-0.1478648219335824,1.5681740303516387,-11.151127503168585,0.0121344048529863,0.4831482768058777,-0.118433803319931,jumping
1783087067762971600,6.6049716796875,-1.4377252573169768,1.3167746727287768,-10.920049633562565,0.3679988384246826,0.7440462112426758,-0.2623080015182495,jumping
1783087067773015800,6.615015869140625,-1.1557898185897617,0.5422320232287049,-9.831626620346308,0.2930449843406677,0.8937914967536926,-0.4710175395011902,jumping
1783087067783059700,6.625059814453125,-0.2466510671172291,-0.5126029009014368,-9.923912105333804,-0.260150283575058,0.9524058699607848,-0.665997326374054,jumping
1783087067793104600,6.635104736328125,1.161916557841748,-0.2499076577603816,-11.271024633181094,-0.941097378730774,0.9514593482017516,-0.7284559011459351,jumping
1783087067803148800,6.645148681640625,2.6908991261422632,0.7907090636640787,-14.014578660190104,-1.3973636627197266,1.1129776239395142,-0.6215322017669678,jumping
1783087067813193700,6.65519384765625,4.199911065690219,1.3750789776593446,-16.079230386072396,-1.5557639598846436,1.3456878662109375,-0.4966883063316345,jumping
1783087067823237600,6.665237548828125,5.108564079472422,1.6252973088040947,-15.901085649752616,-1.412928819656372,1.3107130527496338,-0.4412890672683716,jumping
1783087067833281800,6.67528173828125,5.175630952051281,2.302618770480156,-13.93204416936636,-0.8679736256599426,1.031103253364563,-0.4276094734668731,jumping
1783087067843326700,6.68532666015625,4.226687721195817,3.688250414074957,-11.2307276941061,0.0093566393479704,0.7513048052787781,-0.3489295840263366,jumping
1783087067853370600,6.69537060546875,2.648043734756112,5.092798939585686,-8.043728473573923,0.902087152004242,0.7358805537223816,-0.2523854672908783,jumping
1783087067863415800,6.705415771484375,1.0314540485426782,6.380805782991647,-4.272769673413038,1.5405158996582031,0.907261073589325,-0.0876408070325851,jumping
1783087067873459500,6.71545947265625,-0.6506726703338325,6.753461868542432,0.7127589780211449,1.769533634185791,1.0778274536132812,0.0941771939396858,jumping
1783087067883503600,6.725503662109375,-1.7684446737617254,5.886986493015289,5.550807495990395,1.51738703250885,1.0787956714630127,0.2196369469165802,jumping
1783087067893548800,6.735548828125,-1.943113842925429,5.0321653149247165,10.140201571130753,0.9063140153884888,0.6933619379997253,0.3246831893920898,jumping
1783087067903592700,6.7455927734375,-2.421228783291578,4.599858770531416,13.829405632668731,0.1802645176649093,-0.1117161214351654,0.4500463902950287,jumping
1783087067913637600,6.7556376953125,-3.5818119005724784,3.674552143590152,15.966813967204091,-0.3796664178371429,-1.1441746950149536,0.5007426142692566,jumping
1783087067923681800,6.765681884765625,-4.376480807778239,2.212779217340052,18.08910539662838,-0.4820355474948883,-2.4834933280944824,0.4013872146606445,jumping
1783087067933725700,6.7757255859375,-5.013517897599935,0.6634393590569496,19.271848031008243,-0.164710596203804,-3.80751895904541,0.1825659424066543,jumping
1783087067943770600,6.7857705078125,-4.663572241029143,-0.5900602345913648,17.837033838832376,0.2483198642730713,-4.601940631866455,-0.1156268641352653,jumping
1783087067953814800,6.795814697265625,-3.187802645869553,-0.8380182195886969,14.264882623791694,0.5255139470100403,-4.500434875488281,-0.3191474974155426,jumping
1783087067963859700,6.805859619140625,-1.6246303693279622,-0.4971627551853656,10.705553480923175,0.5950539112091064,-3.6910996437072754,-0.3742037713527679,jumping
1783087067973903600,6.815903564453125,-1.1615321616340428,-0.2942626400545239,11.835417927074433,0.5537016987800598,-3.074920892715454,-0.3204518556594848,jumping
1783087067983947800,6.82594775390625,-0.4885108448373153,-0.5968845276534557,11.3838093008399,0.0291690938174724,-2.6218953132629395,-0.3582134544849396,jumping
1783087067993992700,6.83599267578125,1.0797470278728754,-1.806670651781559,9.63258464194834,-0.6188573241233826,-2.263603925704956,-0.4166397452354431,jumping
1783087068004036600,6.84603662109375,0.941025808794424,-3.480151853518188,7.495705884245037,-1.1078161001205444,-1.8000121116638184,-0.4716867208480835,jumping
1783087068014081800,6.856081787109375,0.5706282427601516,-5.619202986824512,5.188362423330545,-1.3236969709396362,-1.1741636991500854,-0.7123757600784302,jumping
1783087068024125700,6.866125732421875,0.4253576020382345,-7.611041989952326,4.30758613525033,-1.320008397102356,-0.6121741533279419,-1.1464345455169678,jumping
1783087068034169600,6.876169677734375,0.6996449371650815,-8.16688022146821,4.4621828227221965,-1.209286332130432,-0.1066579818725586,-1.5466938018798828,jumping
1783087068044214800,6.88621484375,1.2194903565406798,-7.135235326528549,4.722637593460083,-1.0553553104400637,0.4057335555553436,-1.747036099433899,jumping
1783087068054258700,6.8962587890625,1.7306760841205715,-5.447166504251957,5.863665238660573,-0.8338671326637268,0.8576503992080688,-1.71841299533844,jumping
1783087068064303600,6.9063037109375,1.8356736050345,-4.192302051991224,8.58003490614593,-0.5179073214530945,0.9620419144630432,-1.4799151420593262,jumping
1783087068074347800,6.91634765625,1.898172877436876,-3.624454525990784,10.829535249900816,-0.3417858481407165,0.8223844170570374,-1.140026569366455,jumping
1783087068084392700,6.926392822265625,2.521346277078986,-3.150024996139109,11.939586742079255,-0.353251576423645,0.4851877093315124,-0.7566550970077515,jumping
1783087068094436600,6.9364365234375,2.9462516053050756,-2.9330013708487153,12.306392932558058,-0.454716682434082,0.1513152122497558,-0.2914514541625976,jumping
1783087068104480800,6.946480712890625,2.646453250694275,-2.9578648862093684,11.564531778693198,-0.5495532155036926,-0.0449942797422409,0.1799275279045105,jumping
1783087068114525700,6.956525634765625,1.817071634286642,-2.8331553874790667,10.864718791484831,-0.5931145548820496,-0.161396786570549,0.5462778210639954,jumping
1783087068124569600,6.966569580078125,1.2524272882416845,-2.8011840859398243,10.293795219039916,-0.5541010499000549,-0.2629782855510711,0.740074098110199,jumping
1783087068134614800,6.97661474609375,0.9316963279783724,-2.693350318686664,9.574421206793188,-0.4092448055744171,-0.3856781125068664,0.8152732849121094,jumping
1783087068144658700,6.98665869140625,0.7296222884081304,-2.3651512144997713,8.930309064018726,-0.1300466656684875,-0.46164470911026,0.7811600565910339,jumping
1783087068154702600,6.99670263671875,0.345665787294507,-2.1089798201695085,8.384921499368549,0.1348667591810226,-0.5408556461334229,0.6198604106903076,jumping
1783087068164747800,7.006747802734375,0.5947602289758622,-1.8447683272466064,8.553167357486485,0.2404527515172958,-0.8475445508956909,0.3864193856716156,jumping
1783087068174791700,7.016791748046875,0.959814899612218,-1.5271400091737508,8.573764739835262,0.2949112057685852,-1.3117772340774536,0.2226605415344238,jumping
1783087068184836600,7.026836669921875,0.1966027685523033,-0.7167810731440782,7.399810976588726,0.3594711422920227,-1.722023606300354,0.250246524810791,jumping
1783087068194880800,7.036880859375,-1.434337952966243,-0.0596516278862953,6.118671096342801,0.4810697436332702,-2.124217987060547,0.315922737121582,jumping
1783087068204924700,7.046924560546875,-1.173479569863528,-1.0443766584798693,5.9510535992562765,0.6216835975646973,-2.596292018890381,0.1252453923225402,jumping
1783087068214969600,7.056969482421875,0.3709473819367587,-1.5820628549724816,4.08924908927381,0.6340487003326416,-2.6981353759765625,-0.0492108277976512,jumping
1783087068225013800,7.067013671875,1.9178087212771175,0.0961865840792655,2.2041472903341055,0.4759522676467895,-2.4833507537841797,0.0107949692755937,jumping
1783087068235058700,7.07705859375,2.793475118997693,1.9756986001878976,0.2048182237118482,0.0541989021003246,-2.0247678756713867,0.2195897251367569,jumping
1783087068245102600,7.0871025390625,2.6299337853088973,3.421877359203994,-1.5570570085316895,-0.5040760040283203,-1.4786449670791626,0.60462886095047,jumping
1783087068255146800,7.097146728515625,-0.2015235660806298,3.510582647617161,-5.4146448753535745,-1.044897198677063,-0.564149022102356,1.098022699356079,jumping
1783087068265191700,7.107191650390625,-4.032482076913118,2.0785387969374653,-9.676942254590989,-1.2934030294418335,0.6224858164787292,1.2858713865280151,jumping
1783087068275235600,7.117235595703125,-9.850015678995849,0.4300806850373744,-15.342647464871405,-1.3969472646713257,2.551628351211548,1.7222212553024292,jumping
1783087068285280800,7.12728076171875,-10.834389119672776,-0.3952072323158383,-21.45614788057804,-0.9811859130859376,4.6581010818481445,1.1405386924743652,jumping
1783087068295325000,7.137324951171875,-1.5306323813341558,-0.9061609047055244,-18.334581209421156,-0.7705069780349731,5.376158237457275,0.9267473220825196,jumping
1783087068305368600,7.14736865234375,5.0593555196672675,3.985310283632576,-13.204630058526991,-0.758632481098175,5.36353874206543,1.5203484296798706,jumping
1783087068315413800,7.157413818359375,5.565116591849923,7.499851898008584,-10.67546229404211,-0.4773611426353454,5.038231372833252,2.2039904594421387,jumping
1783087068325457700,7.167457763671875,1.9711675326295195,4.3313703309416764,-6.1846788152575485,0.3094024658203125,3.982719898223877,2.4590532779693604,jumping
1783087068335502600,7.177502685546875,-1.5601615504182875,0.9295087548062204,-2.6751725647002456,1.0275204181671145,2.679546356201172,2.283623695373535,jumping
1783087068345546800,7.187546630859375,-4.152919889673591,-1.1467018914446234,-2.137658509904146,1.264819622039795,1.6042962074279783,1.7526484727859497,jumping
1783087068355590700,7.197590576171875,-4.391040663528442,-2.4696233963653444,-1.4320733690351246,1.2016489505767822,0.6893541216850281,1.0861245393753052,jumping
1783087068365635600,7.207635498046875,-3.351169792035222,-3.725773212261498,-0.4479729000806808,1.0202412605285645,-0.2344066351652145,0.4783608615398407,jumping
1783087068375679700,7.2176796875,-2.798437417580187,-4.745087325677275,-0.9565759176909924,0.7842612266540527,-0.980354070663452,-0.1273316890001297,jumping
1783087068385724700,7.227724609375,-2.01210817643553,-4.518013138754665,-2.5924521959155795,0.5310876965522766,-1.4922213554382324,-0.7192786335945129,jumping
1783087068395768600,7.2377685546875,-0.3857566824033856,-2.440960488721728,-4.2690959533363575,0.1914600878953933,-1.7112629413604736,-1.0447036027908323,jumping
1783087068405812700,7.247812744140625,1.1404408582884815,-0.1430342599719762,-6.2729106409400694,-0.1682014912366867,-1.5578646659851074,-1.108221411705017,jumping
1783087068415857700,7.257857666015625,1.9999314164295792,0.950507411432266,-7.918834265926479,-0.3928814828395843,-1.1778781414031982,-1.0905609130859375,jumping
1783087068425901600,7.267901611328125,1.971852884545177,1.166563068473339,-9.398048156321048,-0.5381855368614197,-0.6638931632041931,-1.0644627809524536,jumping
1783087068435946800,7.27794677734375,1.9269944827735423,1.815838877621293,-10.107000727796557,-0.62332683801651,-0.1387084573507309,-0.973107635974884,jumping
1783087068445991000,7.287990966796875,1.6904193309254942,2.659483412659168,-9.817585235512256,-0.5585151314735413,0.2343767881393432,-0.7672836780548096,jumping
1783087068456034600,7.29803466796875,1.169192540194094,2.977506283007562,-9.35647520596087,-0.1807185411453247,0.4868170320987701,-0.5560728907585144,jumping
1783087068466079700,7.308079833984375,-0.0691272848405409,2.971228517912328,-9.12157748580575,0.4418959021568298,0.6746945977210999,-0.3762159943580627,jumping
1783087068476124000,7.3181240234375,-0.9608630204256624,2.480629651287198,-7.358295309373736,0.8951768279075623,0.6048699617385864,-0.2785501480102539,jumping
1783087068486168600,7.32816845703125,-1.3273013274401426,1.4221560783937572,-5.513361854693294,0.9462189078330994,0.312665045261383,-0.2911486327648163,jumping
1783087068496212700,7.338212646484375,-1.1681061331968754,0.4255228756025433,-5.020151636525989,0.5453476309776306,-0.0957219004631042,-0.3875777125358581,jumping
1783087068506256600,7.348256591796875,-0.6697134708903729,0.573121959272027,-6.425958345404267,-0.0940704196691513,-0.5825875997543335,-0.5050675868988037,jumping
1783087068516301000,7.358301025390625,0.2595287054015323,1.6038167138800024,-8.854256336429714,-0.5239179134368896,-0.9598978757858276,-0.5657677054405212,jumping
1783087068526345200,7.36834521484375,0.7956937202088534,2.9504736069142816,-12.075903091973066,-0.5991796255111694,-1.082171082496643,-0.5485944151878357,jumping
1783087068536390400,7.378390380859375,1.324817109408975,3.645889235946536,-14.8746126044929,-0.4256919920444488,-0.6660767197608948,-0.5848717093467712,jumping
1783087068546434000,7.38843408203125,1.3920733670800924,3.577319849850237,-16.42381889952421,-0.2917111217975616,0.1869624704122543,-0.6653326153755188,jumping
1783087068556479200,7.398479248046875,1.0821738896936175,3.42750835082829,-16.229762308323384,-0.275956928730011,1.169235110282898,-0.7693567276000977,jumping
1783087068566523100,7.408523193359375,1.073087935309857,3.756316526824236,-15.047611210095882,-0.3299294412136078,1.9995465278625488,-0.7594754695892334,jumping
1783087068576567300,7.4185673828125,1.5384332643434404,4.115021828433871,-12.57096156835556,-0.5007067322731018,2.3718831539154053,-0.5602896809577942,jumping
1783087068586612200,7.4286123046875,1.845203503793478,3.7638293866723775,-9.68189666212797,-0.6886494755744934,2.3398475646972656,-0.2462118268013,jumping
1783087068596656000,7.43865625,1.813941081175953,2.905931285354495,-7.279109544456005,-0.7394804358482361,2.0667333602905273,0.0178190190345048,jumping
1783087068606701000,7.448701171875,1.7701072001464664,1.6806866030707954,-5.41528726491034,-0.6545625329017639,1.754417061805725,0.1389677971601486,jumping
1783087068616745200,7.4587451171875,1.9309835524097083,0.6820388455867767,-3.7609611377596854,-0.4788434505462646,1.4899060726165771,0.1382218450307846,jumping
1783087068626789000,7.4687890625,2.994978226812184,0.5107470439016819,-2.5797990505695343,-0.2679408192634582,1.4021804332733154,0.1448256969451904,jumping
1783087068636834000,7.478833984375,3.0615801122277975,1.5248416691035032,-1.7268810757517814,-0.0271478854119777,1.3471081256866455,0.2943494021892547,jumping
1783087068646878200,7.488878173828125,1.4853119150087235,1.8831176393851636,-0.2889963900893926,0.1188758090138435,1.1076781749725342,0.3312136530876159,jumping
1783087068656923400,7.49892333984375,-0.9146477972175926,1.7527634127661584,1.5699480542868376,0.424019455909729,0.5556253790855408,0.3463428020477295,jumping
1783087068666967000,7.508967041015625,-3.0779958249777555,1.2427870609760283,4.446259277403354,0.92704439163208,-0.1004847958683967,0.3398020565509796,jumping
1783087068677011200,7.51901123046875,-4.7475598532706496,1.1156634868413209,8.690141294506192,1.4924840927124023,-0.898779571056366,0.3641779720783233,jumping
1783087068687056400,7.529056396484375,-5.593541306823492,0.7099640866056084,13.757060527426004,1.9006463289260864,-1.920047402381897,0.3839979767799377,jumping
1783087068697100300,7.539100341796875,-5.959971649727225,-0.824990980233252,18.507414979851244,1.9779088497161863,-3.108926296234131,0.3162873685359955,jumping
1783087068707145200,7.549145263671875,-5.174897377079725,-2.371129119865596,20.790499028778076,1.8255101442337036,-4.125607490539551,0.1666034311056137,jumping
1783087068717189000,7.559189208984375,-3.441176810696721,-3.364103215627372,20.3234146009922,1.465034246444702,-4.72821569442749,-0.0546029843389987,jumping
1783087068727233300,7.5692333984375,-1.3478876038730143,-4.050352664646506,17.524284232711793,0.8316351175308228,-4.659736633300781,-0.3317454159259796,jumping
1783087068737278200,7.5792783203125,1.0714502511054276,-3.930951209196448,13.648845651900768,0.2313135862350464,-4.513108730316162,-0.5193430185317993,jumping
