time,seconds_elapsed,accel_x,accel_y,accel_z,gyro_x,gyro_y,gyro_z,label
1783087574188082400,0.05608251953125,0.1091971645608544,-1.0850666885256766,0.483195020109415,-0.0908241271972656,-0.1414544284343719,-0.2677837610244751,jumping
1783087574198126300,0.066126220703125,0.0553330340348184,-1.0277011257499455,0.4513613734751939,-0.132368117570877,-0.1119391396641731,-0.2636755704879761,jumping
1783087574208171300,0.076171142578125,-0.0808566207394003,-1.1065423150137066,0.3553454697877168,-0.1611631661653518,-0.0647406280040741,-0.2579528391361236,jumping
1783087574218215400,0.08621533203125,-0.1290925361201167,-1.124855239687115,0.2535650112241506,-0.1612270772457122,0.0194775853306055,-0.2442415356636047,jumping
1783087574228259300,0.09625927734375,-0.1537804026529192,-1.119527468793094,0.1673731669366359,-0.1333475112915039,0.1086966022849083,-0.2393111139535904,jumping
1783087574238304300,0.10630419921875,-0.2972333264283835,-1.2060589202985166,0.1621522174179553,-0.1042375788092613,0.174288660287857,-0.2422381937503814,jumping
1783087574248348400,0.116348388671875,-0.2627148246243596,-1.2386068526819347,0.3168751616179943,-0.0836767926812172,0.2162072658538818,-0.241989716887474,jumping
1783087574258392300,0.126392333984375,-0.0950268926501274,-1.096411089360714,0.4544751215815544,-0.0877146795392036,0.1956082433462143,-0.2252000868320465,jumping
1783087574268437500,0.1364375,0.0101123748220503,-0.8553631760127842,0.3464870405495167,-0.0901333466172218,0.1682351380586624,-0.1803859174251556,jumping
1783087574278481400,0.1464814453125,0.0302528071835637,-0.8192400154910982,0.2765010656535625,-0.0797297060489654,0.1265217810869217,-0.1232208982110023,jumping
1783087574288525300,0.156525390625,0.1365066117689013,-0.9821509423218668,0.3861813375562429,-0.0717698261141777,0.066177561879158,-0.0762523934245109,jumping
1783087574298570500,0.166570556640625,0.2033212631523609,-1.1757160967439413,0.4920680623948574,-0.0954818129539489,-0.0338845923542976,-0.0509156137704849,jumping
1783087574308614400,0.176614501953125,0.0949609878070652,-1.0958065475963057,0.2909516158103942,-0.1545370072126388,-0.0908656269311904,-0.0470803491771221,jumping
1783087574318659600,0.18665966796875,-0.2514163087576627,-0.872762054581195,-0.0654810646921396,-0.2476616203784942,-0.0445005223155021,-0.0314822159707546,jumping
1783087574328703500,0.196703369140625,-0.9144199067458508,-0.6740187668688595,-0.5529594612091779,-0.3271543979644775,0.0632906183600425,0.0135835353285074,jumping
1783087574338747400,0.206747314453125,-1.526739465548843,-0.7657208990104496,-0.935858123832941,-0.3687239289283752,0.1712831258773803,0.0432708598673343,jumping
1783087574348792300,0.216792236328125,-1.6043134113557636,-1.044818118637055,-1.0134896450459956,-0.3520627319812774,0.237175852060318,0.0243571288883686,jumping
1783087574358836500,0.22683642578125,-1.4047748816125094,-1.3042496838070452,-0.7227683308601379,-0.3097224533557892,0.251775324344635,-0.0800821930170059,jumping
1783087574368880400,0.23688037109375,-0.4329556559517979,-1.2877633900389074,0.1089385136246681,-0.2812026441097259,0.0660282671451568,-0.2991744875907898,jumping
1783087574378925300,0.24692529296875,1.4407638943605123,-0.5249211152046919,0.7707669303536414,-0.1741638034582138,-0.2386970072984695,-0.5443387031555176,jumping
1783087574388969500,0.256969482421875,2.052282950435578,0.6246199451886117,0.0725029261529445,0.0641157329082489,-0.496945858001709,-0.5873898267745972,jumping
1783087574399013600,0.267013671875,1.532682591862231,0.9622327744089066,-0.9877905556440352,0.3323205411434173,-0.6376203894615173,-0.4286710321903229,jumping
1783087574409058300,0.277058349609375,0.3392090123705565,0.7580394045971334,-1.43916888025403,0.5311883091926575,-0.6295831203460693,-0.2263894528150558,jumping
1783087574419102500,0.2871025390625,-0.7014718603312968,0.2049972335405647,-0.98697982378304,0.593616247177124,-0.5923665165901184,-0.1260423362255096,jumping
1783087574429146600,0.297146728515625,-1.0037880429819226,-0.6028520577557385,-0.2300648931711912,0.5086946487426758,-0.5478819012641907,-0.0965433046221733,jumping
1783087574439191300,0.30719140625,-0.7418390881635248,-1.211850947703421,0.1955453684538602,0.3363319337368011,-0.4813931286334991,-0.1019892022013664,jumping
1783087574449235500,0.3172353515625,-0.1351844232544302,-1.2525295795723794,0.0974117419600486,0.1555456966161728,-0.3889385163784027,-0.1138370633125305,jumping
1783087574459280400,0.3272802734375,0.2245610350579023,-0.7102870349496603,-0.8358575344234704,0.0386968404054641,-0.1537081599235534,-0.0799595192074775,jumping
1783087574469324300,0.33732421875,0.2757558002442121,-0.3555496140576898,-1.5034779785573482,0.0072688609361648,0.1746128052473068,-0.0102463141083717,jumping
1783087574479368400,0.347368408203125,0.2563882519513368,-0.1593332144744694,-1.4962486118257046,-0.0285173654556274,0.5447530150413513,0.0831547379493713,jumping
1783087574489413400,0.357413330078125,0.3710788993619382,-0.0113913087166845,-1.1657692877471446,-0.099020130932331,0.880807638168335,0.1795248240232467,jumping
1783087574499457300,0.367457275390625,0.4937672675281763,-0.0456201799243688,-0.678036039686203,-0.1684151887893676,1.0961830615997314,0.2662805020809173,jumping
1783087574509501400,0.37750146484375,0.5571897922553122,-0.2458789867661893,0.4032786028295755,-0.1731052845716476,1.0439618825912476,0.3001526296138763,jumping
1783087574519546600,0.387546630859375,0.3869023453071713,-0.5836369235455989,1.3450170168727635,-0.068454772233963,0.8055173754692078,0.3075490295886993,jumping
1783087574529590300,0.39759033203125,-0.0211960788942873,-0.945288653870672,1.4240332704424856,0.0935117080807685,0.6274141669273376,0.3190657794475555,jumping
1783087574539634400,0.407634521484375,-0.355359059921652,-1.1385521949976682,1.1811059730887412,0.2254966348409652,0.5071468353271484,0.299981027841568,jumping
1783087574549679600,0.4176796875,-0.041503684516251,-1.1918380872443315,1.501989785826206,0.3130938708782196,0.3511331975460052,0.226598784327507,jumping
1783087574559723300,0.42772314453125,0.9216523422174157,-0.7567734763145446,2.1849784794837235,0.3679139912128448,0.0710978284478187,0.1808542013168335,jumping
1783087574569767400,0.437767333984375,1.878596362568438,-0.3798014272607862,2.9835943707495924,0.4278525412082672,-0.3242701590061188,0.202992096543312,jumping
1783087574579812600,0.4478125,2.277963344912231,-0.0970971230529248,2.9918928280174732,0.4393810927867889,-0.6715167760848999,0.2724801003932953,jumping
1783087574589856500,0.4578564453125,1.7875505023784934,0.331822701511532,1.6835048753619193,0.2884904444217682,-0.8111845850944519,0.3430092930793762,jumping
1783087574599901400,0.4679013671875,0.5217413161247968,0.5411651246495545,0.3781213652193546,0.0008208572398871,-0.7778987884521484,0.3899783790111542,jumping
1783087574609945600,0.477945556640625,-0.3358747533813119,0.3350742506533861,-0.1358101539373397,-0.1995652168989181,-0.6233583688735962,0.4394797682762146,jumping
1783087574619989500,0.487989501953125,-0.9143957952179014,0.1888923403054475,-0.181451961171627,-0.1957976520061493,-0.4865198731422424,0.5050029158592224,jumping
1783087574630034400,0.498034423828125,-1.4926935496926306,-0.0020054946035146,-0.3705816173642873,-0.0697155073285102,-0.3272881805896759,0.5537936091423035,jumping
1783087574640078600,0.50807861328125,-1.5763517838492989,-0.1597141766160726,-0.2985059767127037,0.0457743443548679,-0.2206264436244964,0.5849353075027466,jumping
1783087574650122500,0.51812255859375,-1.3383056826658546,-0.3085815266557037,-0.2603653388887643,0.0743799433112144,-0.2192766368389129,0.6096677184104919,jumping
1783087574660167400,0.52816748046875,-1.177271801753342,-0.546772150876373,-0.4604062651962041,0.0297352485358715,-0.221345916390419,0.5816634893417358,jumping
1783087574670211300,0.53821142578125,-0.8488757136896252,-0.4230800124950706,-0.3414887938708066,-0.0045381146483123,-0.1571355462074279,0.5572468638420105,jumping
1783087574680255500,0.54825537109375,-0.6081491412505508,0.0011300269432365,0.1240671091735362,-0.0143505316227674,-0.1006722524762153,0.5684252381324768,jumping
1783087574690300400,0.558300537109375,-0.5309590801946819,0.3973477514758706,0.5988210486739873,-0.0368188247084617,-0.0720400810241699,0.6024466156959534,jumping
1783087574700344300,0.56834423828125,-0.4038930814661085,0.6359560165867209,0.9393611635178328,-0.0901693925261497,-0.0800724402070045,0.6477370858192444,jumping
1783087574710388500,0.578388427734375,-0.1950146225780248,0.789562377846986,0.9976485173135996,-0.1623345464468002,-0.119617760181427,0.6752023100852966,jumping
1783087574720433400,0.588433349609375,0.0709380149237811,0.7546807418189942,0.9560872573912144,-0.2473154813051223,-0.2161781191825866,0.694749116897583,jumping
1783087574730477300,0.598477294921875,0.2573588505491614,0.6354246861889958,0.574530072504282,-0.3470753133296966,-0.3691126108169555,0.7360654473304749,jumping
1783087574740522500,0.6085224609375,0.1773098929308355,0.4448866245031356,-0.1644569872289896,-0.3501339554786682,-0.5198155641555786,0.800544023513794,jumping
1783087574750566400,0.61856640625,-0.0183428814202547,0.1768082270190119,-0.7354168000310659,-0.2330397367477417,-0.6324464678764343,0.8478924036026001,jumping
1783087574760610300,0.6286103515625,0.024522008446604,-0.1035461530618369,-0.6833376532256603,-0.0480134263634681,-0.7403455376625061,0.8683468103408813,jumping
1783087574770655500,0.638655517578125,-0.037633857345581,-0.4001331444106996,-0.4213379911333322,0.1189061775803566,-0.816938579082489,0.8595031499862671,jumping
1783087574780699400,0.648699462890625,-0.0533373301729559,-0.5712270854361355,0.10951309864223,0.1959831267595291,-0.8828086853027344,0.8214293122291565,jumping
1783087574790743300,0.658743408203125,0.1091731991633772,-0.4998090319104492,0.71483812238276,0.1725686192512512,-0.9408162236213684,0.7791749238967896,jumping
1783087574800788500,0.66878857421875,0.1986757754340767,-0.3789743287868797,1.2266525032550095,0.0795755535364151,-0.988898515701294,0.7406291365623474,jumping
1783087574810832400,0.678832275390625,0.4302332452505826,-0.362356663724035,1.8053011169940232,-0.0238365530967712,-1.0486583709716797,0.7170957922935486,jumping
1783087574820876300,0.688876220703125,0.6130763685196637,-0.4416260152719914,2.4088158764421936,-0.1044365838170051,-1.1312587261199951,0.6994931101799011,jumping
1783087574830921500,0.69892138671875,0.6615577830940484,-0.7354267369031906,2.844424969512224,-0.1556024253368377,-1.2087470293045044,0.6857522130012512,jumping
1783087574840965600,0.708965576171875,0.746065912078321,-1.0891590724058449,3.1198908468991515,-0.1646550446748733,-1.2865859270095823,0.6878387928009033,jumping
1783087574851009300,0.71900927734375,0.7756085251659155,-1.2789379862874746,3.121998048311472,-0.122397780418396,-1.3217263221740725,0.7118545174598694,jumping
1783087574861054500,0.729054443359375,0.320064897570014,-1.073941191138327,2.8900083245575425,-0.0692831575870513,-1.2934448719024658,0.7730592489242554,jumping
1783087574871098600,0.7390986328125,-0.4953647658526897,-0.8051664819531142,2.5655273641109466,-0.0062486212700605,-1.20524799823761,0.8305168151855469,jumping
1783087574881142300,0.749142333984375,-1.216681144338846,-0.7539581266328692,2.340606848090887,0.0652071833610534,-1.110324144363403,0.8516823053359985,jumping
1783087574891187500,0.7591875,-1.409489781305194,-0.8113415173262357,2.0650684899896383,0.1612725108861923,-0.9757489562034608,0.8439669013023376,jumping
1783087574901231600,0.769231689453125,-1.1547086722895503,-0.8055228941753506,1.4304174185216425,0.2575780153274536,-0.7260885238647461,0.8123836517333984,jumping
1783087574911276300,0.7792763671875,-0.4729021741539239,-0.6516830164201557,0.9762924255520103,0.3023123145103454,-0.4149538874626159,0.7669090628623962,jumping
1783087574921320400,0.789320556640625,0.1012897524371743,-0.0489845417909324,0.763152948218584,0.2842504978179931,-0.044927354902029,0.7348052263259888,jumping
1783087574931364600,0.799364501953125,0.4626701184749603,0.4328600866228342,0.6487824726730584,0.2002285271883011,0.3707653284072876,0.703741192817688,jumping
1783087574941409300,0.8094091796875,0.9416264781013132,0.6474003706648945,1.0118471385359764,0.0830726027488708,0.7610363960266113,0.6629791259765625,jumping
1783087574951453400,0.819453369140625,1.381693719623983,0.7911582687363028,1.5595482408255337,-0.0153758898377418,1.097547173500061,0.6228743195533752,jumping
1783087574961497600,0.82949755859375,1.4936147561907769,0.8151575684830545,2.21922678604424,-0.058709517121315,1.3686569929122925,0.5602636337280273,jumping
1783087574971542300,0.839542236328125,1.3183496669605377,0.7121281327717006,2.9970483110845088,-0.0597328841686248,1.5554229021072388,0.4484648108482361,jumping
1783087574981586000,0.8495859375,1.3335180099979045,0.1174536823831498,4.053827647280693,-0.0623723417520523,1.599929928779602,0.2966361343860626,jumping
1783087574991630000,0.859630126953125,1.4766487160816788,-0.9344729530848562,5.220086764371395,-0.1228353232145309,1.3866783380508425,0.0973203405737876,jumping
1783087575001675000,0.869675048828125,1.349785254187882,-1.8286019130825997,5.725359176254272,-0.1920080035924911,0.9934056997299194,-0.1163115128874778,jumping
1783087575011719000,0.879718994140625,0.7073974509879947,-2.9865833234325048,5.117846871602535,-0.15623539686203,0.5316980481147766,-0.3313993811607361,jumping
1783087575021763000,0.88976318359375,0.2375000116080045,-4.091532231774926,3.8627036024004218,0.0526333972811698,0.0435171797871589,-0.5570895075798035,jumping
1783087575031808300,0.899808349609375,0.1021247419565916,-4.670730880612135,2.159270622253418,0.4198923408985138,-0.3877323269844055,-0.8260867595672607,jumping
1783087575041852000,0.909851806640625,-0.2709530761376023,-4.995605808812379,0.4494470642864704,0.8216515183448792,-0.6266234517097473,-1.1075760126113892,jumping
1783087575051897000,0.91989697265625,-0.8769204894348979,-4.472392082047462,-0.4723486319243907,1.0636448860168457,-0.6387876272201538,-1.3274575471878052,jumping
1783087575061941200,0.929941162109375,-1.607892292755842,-3.6450954552203414,-1.0669786586493253,1.0527576208114624,-0.4524239003658294,-1.4828535318374634,jumping
1783087575071985000,0.93998486328125,-2.19862794239074,-2.8788787355169654,-1.8569541473418472,0.8481289744377136,-0.1064326465129852,-1.5327386856079102,jumping
1783087575082030000,0.950030029296875,-2.5236668289810416,-2.0549059924155473,-2.9315210691630837,0.585612416267395,0.3240590989589691,-1.4275214672088623,jumping
1783087575092074200,0.96007421875,-2.12644211936295,-1.6352942405529318,-3.9699838274240498,0.422118604183197,0.6625946760177612,-1.1931798458099363,jumping
1783087575102118000,0.970117919921875,-1.372655549904704,-1.1339324262425303,-5.421630496457219,0.4032447934150696,0.8387691378593445,-0.9105052947998048,jumping
1783087575112163000,0.9801630859375,-0.9284270970493554,-0.3970724416658282,-7.431231366246938,0.5427824854850769,0.8993906378746033,-0.6386448740959167,jumping
1783087575122207200,0.990207275390625,-1.1156108798712492,0.2120969825431704,-8.574740306869149,0.7866345643997192,0.8167955875396729,-0.384274423122406,jumping
1783087575132251100,1.000251220703125,-1.553172860574722,0.4865019527003169,-8.813820281144976,0.9880685806274414,0.6819016933441162,-0.1872896701097488,jumping
1783087575142296000,1.010296142578125,-2.266586795373261,0.5418992841430008,-8.477407475364208,1.0080153942108154,0.4791762828826904,-0.0243779867887496,jumping
1783087575152340200,1.02034033203125,-3.072054452230036,0.811193267961964,-7.757252541872859,0.8184542655944824,0.0873080268502235,0.2152794450521469,jumping
1783087575162384100,1.030384033203125,-3.83282985766232,1.0489795491654426,-8.123058030876518,0.5777189135551453,-0.3242073357105255,0.5418543219566345,jumping
1783087575172429000,1.040428955078125,-4.205265578460693,1.0926534173276274,-10.113198997914791,0.4065003991127014,-0.5658754706382751,0.8196906447410583,jumping
1783087575182473200,1.05047314453125,-4.114568823969364,1.2406205305919051,-12.485562920272349,0.3177622854709625,-0.6346350908279419,1.0323187112808228,jumping
1783087575192517000,1.06051708984375,-3.7512630428269502,1.145724790040776,-15.349343747639654,0.3830229341983795,-0.5264851450920105,1.1897743940353394,jumping
1783087575202562000,1.07056201171875,-3.36086204174906,1.1935864652816206,-17.24147383778095,0.5219483375549316,-0.197724312543869,1.2903447151184082,jumping
1783087575212606200,1.080606201171875,-2.877344950078428,1.6274126935228703,-18.248425020968913,0.5520164966583252,0.3538863062858581,1.314915895462036,jumping
1783087575222651000,1.09065087890625,-2.308215567573905,2.0400933309480545,-17.589610399103165,0.4959734380245209,1.0147374868392944,1.2871646881103516,jumping
1783087575232695000,1.100695068359375,-1.8830004427462816,2.555726101064682,-15.443047282731532,0.3970813155174255,1.559943675994873,1.254907488822937,jumping
1783087575242739200,1.1107392578125,-1.428826496068388,2.9126278603836893,-13.28917530465126,0.2436688542366027,1.9479931592941284,1.204337477684021,jumping
1783087575252784000,1.1207841796875,-1.3226181380599735,3.234168383464217,-11.406612668800353,0.0410605035722255,2.2420053482055664,1.1817234754562378,jumping
1783087575262828000,1.130828125,-1.3712176260560751,3.3725285141453143,-9.919315425193307,-0.1514913737773895,2.4913806915283203,1.2603996992111206,jumping
1783087575272872200,1.1408720703125,-1.212433131505549,3.414887354186177,-8.200214920315146,-0.2235331237316131,2.62689208984375,1.3853704929351809,jumping
1783087575282917000,1.150917236328125,-0.7803535277359187,3.4012551346749067,-5.8715001700699325,-0.0766419470310211,2.547534227371216,1.4971606731414795,jumping
1783087575292961000,1.1609609375,0.2486066581644117,3.009233254396915,-3.1607290532439944,0.2132674753665924,2.2037532329559326,1.550495982170105,jumping
1783087575303005000,1.1710048828125,1.6959055072516205,2.8963927648976444,-0.0978460417240858,0.5541055202484131,1.5666152238845823,1.526444673538208,jumping
1783087575313050000,1.181050048828125,2.629035667425394,2.7383623035848137,2.6649083603173493,0.8265866041183472,0.8629493713378906,1.400231122970581,jumping
1783087575323094000,1.191093994140625,3.0976597258687018,2.3716467139989135,4.603317971074581,0.8947057127952576,0.3965840637683868,1.1798505783081057,jumping
1783087575333138000,1.201137939453125,2.95291924650073,2.2361782131060957,7.162938156968354,0.7722033858299255,0.0449024774134159,0.9473140239715576,jumping
1783087575343183000,1.21118310546875,2.291021856188774,1.8326637556940315,9.8251489487648,0.5272689461708069,-0.252306580543518,0.6939917206764221,jumping
1783087575353227300,1.221227294921875,1.2809731453768909,0.8232183445375412,12.238865456730126,0.2817462384700775,-0.4823066592216491,0.3617473840713501,jumping
1783087575363271000,1.23127099609375,-0.0989654742080718,0.0372549410305917,14.02853704291582,-0.1232694387435913,-0.579380214214325,-0.0251545384526252,jumping
1783087575373316000,1.241316162109375,-1.3380594528198242,0.4786304156076162,17.188637735128403,-0.2582805156707763,-1.0153003931045532,-0.266513466835022,jumping
1783087575383360300,1.2513603515625,-1.9519927304297684,0.5052443548321723,17.283379381096363,-0.4886625707149505,-1.6306016445159912,-0.3802576065063476,jumping
1783087575393404000,1.26140380859375,-2.4586957596376537,0.0998424762383103,15.712621763992308,-0.6412964463233948,-2.1402368545532227,-0.427949845790863,jumping
1783087575403449000,1.271448974609375,-1.8884405879735944,-0.0588614273566752,13.708422460985185,-0.5290764570236206,-2.440515518188477,-0.4475648403167724,jumping
1783087575413493200,1.2814931640625,-0.4040047251470386,-0.1643551342897117,12.24824235688448,-0.3385425209999084,-2.53036117553711,-0.5146259069442749,jumping
1783087575423538200,1.2915380859375,0.9222831874668598,-0.206125433852896,11.17737487410307,-0.2017402052879333,-2.4710471630096436,-0.5801330208778381,jumping
1783087575433582000,1.30158203125,1.7352965835280716,-0.3097228056453168,9.94788802420497,-0.0656773075461387,-2.166621685028076,-0.6127281785011292,jumping
1783087575443626200,1.311626220703125,2.376782469452172,-0.3464174093794077,9.033779375365375,-0.0177561156451702,-1.6392401456832886,-0.6099268198013306,jumping
1783087575453671000,1.3216708984375,2.8747131402701136,-0.3211319422796368,8.441100482708215,-0.1516690999269485,-1.0060397386550903,-0.5611682534217834,jumping
1783087575463715000,1.331715087890625,3.1683418663352727,-0.6306361367382108,7.761808305481075,-0.3873104155063629,-0.3872798979282379,-0.5185933709144592,jumping
1783087575473759200,1.34175927734375,3.3153421073287723,-0.8838904745779931,7.289788759380579,-0.6016709804534912,0.2040179371833801,-0.4950121641159057,jumping
1783087575483804000,1.351803955078125,3.25119024541378,-0.8269533663474022,7.365355164757371,-0.7326068878173828,0.7301826477050781,-0.464884340763092,jumping
1783087575493848000,1.36184814453125,2.8180335139319297,-0.6127528356537223,7.65661540812552,-0.7832707166671753,1.1734634637832642,-0.3838630020618438,jumping
1783087575503892200,1.371892333984375,2.240721847885102,-0.6980658512800931,8.109212460875511,-0.7738178372383118,1.5002695322036743,-0.2598119080066681,jumping
1783087575513937000,1.38193701171875,1.7517272015862166,-1.22060007134825,8.745577935045958,-0.7380558848381042,1.6631754636764526,-0.1425172388553619,jumping
1783087575523981000,1.39198095703125,1.4500269588768482,-1.8679511960439383,9.574778349667788,-0.6937481164932251,1.5299712419509888,-0.0643707737326622,jumping
1783087575534025200,1.402025146484375,1.174872047135234,-2.49948048222959,9.943189637255667,-0.6196333169937134,1.174072265625,-0.0156309530138969,jumping
1783087575544070000,1.41206982421875,0.8390135142363607,-2.9937364100575445,9.895782573914529,-0.4621030688285827,0.6508663892745972,0.0454220175743103,jumping
1783087575554114000,1.422114013671875,0.5463200231947004,-3.3528783495187757,9.555551086628435,-0.2080881297588348,0.0886206626892089,0.0756059661507606,jumping
1783087575564158200,1.432158203125,0.3841130068495869,-3.434929148478806,9.102073159390688,0.0449835322797298,-0.35710409283638,0.0472187995910644,jumping
1783087575574203100,1.442203125,0.6792913004443049,-3.1617768087312577,8.978293634986876,0.1753746420145034,-0.6883377432823181,-0.0435603447258472,jumping
1783087575584247000,1.4522470703125,1.054743884845823,-2.451941609202325,9.044733315578103,0.1582659631967544,-0.9237039685249328,-0.141080766916275,jumping
1783087575594292200,1.462292236328125,1.3767951339274644,-1.4313513383708891,9.083681178131698,0.074441485106945,-1.0655949115753174,-0.1981784999370575,jumping
1783087575604336000,1.472336181640625,1.6244867230735718,-0.2523234867304563,9.083358522048592,0.0082243867218494,-1.1843212842941284,-0.1823587864637375,jumping
1783087575614380000,1.482380126953125,1.4401011926680802,0.8805879259012639,8.316796057647466,0.0755622386932373,-1.287732481956482,-0.1223963499069213,jumping
1783087575624425200,1.49242529296875,1.5760577693387865,2.430809097063541,7.06578009750843,0.2610053420066833,-1.3905078172683716,0.0184747464954853,jumping
1783087575634469000,1.50246923828125,2.4002824413746593,3.565279867966473,6.384428649663925,0.4567559659481048,-1.506818771362305,0.2551443874835968,jumping
1783087575644513000,1.512512939453125,3.5285511427670717,4.351748809842765,5.342209169217944,0.4647209346294403,-1.7067981958389282,0.5867284536361694,jumping
1783087575654558200,1.52255810546875,3.8286680618077513,3.963171224799752,2.1616490418225527,0.2948563396930694,-1.7551705837249756,0.8348632454872131,jumping
1783087575664602000,1.53260205078125,3.5606203517228363,2.4157988671973345,-0.863792420053482,0.044833455234766,-1.6083955764770508,0.9441492557525636,jumping
1783087575674646000,1.54264599609375,2.0416940441429614,2.025698310370743,-2.943154808333516,-0.2082736194133758,-1.1095738410949707,1.1259077787399292,jumping
1783087575684691200,1.552691162109375,-9.160061237978937,3.556962413737178,-7.564534505799412,-0.1606397926807403,0.451485127210617,1.4204442501068115,jumping
1783087575694735000,1.562735107421875,-12.399188120633363,2.573047822743654,-12.072249830162525,0.0756238922476768,2.8892269134521484,1.347478270530701,jumping
1783087575704779300,1.572779296875,-9.177213448309898,-3.1650092147812243,-16.16887617020607,-0.132088303565979,5.2539381980896,0.8279808163642883,jumping
1783087575714824200,1.58282421875,-4.455687323223054,-2.420719956986606,-25.427667831528183,-1.5308693647384644,7.693643093109131,0.2914327085018158,jumping
1783087575724868000,1.5928681640625,2.177606489410996,2.0241056343518196,-24.526610971963404,-2.3791756629943848,8.94479751586914,0.4351379573345184,jumping
1783087575734912300,1.602912353515625,7.872275928369164,1.5097180419906973,-14.282574932348728,-1.8667054176330569,7.88285493850708,0.8049739599227905,jumping
1783087575744957200,1.612957275390625,8.932573501819371,0.9627436465404928,-5.107330738285183,-0.5850676894187927,5.499998092651367,1.2058640718460083,jumping
1783087575755001000,1.6230009765625,2.030099029547721,-0.8065938844077288,-4.783792611646652,0.6323723793029785,3.4943065643310547,1.292368769645691,jumping
1783087575765045200,1.633045166015625,-4.026457117535173,-3.76830945469588,-7.619092609938979,1.1233454942703247,2.6922481060028076,0.788392186164856,jumping
1783087575775090000,1.64308984375,-4.25340680129528,-4.112463668383658,-3.9250159739285704,0.7075838446617126,1.8675591945648191,0.0912127122282981,jumping
1783087575785134000,1.653134033203125,-3.0332123881384727,-3.8811756631582974,0.8453560151308774,-0.0121306031942367,0.2028347700834274,-0.6704340577125549,jumping
1783087575795179000,1.663178955078125,-3.604204057383537,-5.094470672190189,-0.3041407677292823,-0.5120339393615723,-1.760279417037964,-1.4296170473098757,jumping
1783087575805223000,1.673222900390625,-3.6097421100273728,-5.405820932906866,-3.905370193216205,-0.6466101408004761,-3.5300416946411133,-1.9173941612243652,jumping
1783087575815267000,1.68326708984375,-2.944484887893498,-2.7412203233644363,-9.406057859775425,-0.2476533353328704,-4.693094730377197,-2.0200798511505127,jumping
1783087575825312300,1.693312255859375,-0.1110960569847375,1.3136983340233563,-19.705885929238796,0.1029632613062858,-4.2569074630737305,-1.9125919342041016,jumping
1783087575835356000,1.70335595703125,3.5440693221554156,5.0398669753432275,-23.24966912792921,0.3617025017738342,-2.7001535892486572,-1.5992062091827393,jumping
1783087575845400000,1.713400146484375,4.741554767636955,6.950294354197383,-20.48520558388233,0.3487952351570129,-1.3690762519836426,-1.062389850616455,jumping
1783087575855445200,1.7234453125,3.998727106827497,5.597652249273658,-15.93065778119564,0.1026846393942833,-0.6564570665359497,-0.5711162090301514,jumping
1783087575865489000,1.733489013671875,1.469962370185554,3.624884734101593,-11.791009461027382,0.0223434586077928,-0.3764000833034515,-0.0540523119270801,jumping
1783087575875533000,1.743532958984375,-1.5769327986076471,1.1595223561815915,-11.1383007548213,0.0156661588698625,-0.1694949269294738,0.2149214446544647,jumping
1783087575885578200,1.753578125,-3.26335911437422,-1.382591399116069,-11.997653146600722,-0.0298065189272165,0.0773441642522811,0.114645704627037,jumping
1783087575895622000,1.763621826171875,-3.279469414436817,-3.641033028087019,-13.09262163593769,-0.2131969034671783,0.3299753069877624,-0.3561476767063141,jumping
1783087575905666000,1.773666015625,-1.8903885071709752,-3.891469678157568,-13.666847757059337,-0.4998928308486938,0.5152506232261658,-0.9927262663841248,jumping
1783087575915711200,1.783711181640625,-0.7696401913460343,-1.57671754842177,-14.14333012778759,-0.7733341455459595,0.6639570593833923,-1.4102425575256348,jumping
1783087575925755100,1.793755126953125,-0.8428681438378989,1.4766978159204125,-14.378476269745828,-0.9402053952217102,0.8844132423400879,-1.473657250404358,jumping
1783087575935799000,1.803799072265625,-1.2582839053153991,3.601973521852493,-12.525481089162826,-0.9190778136253356,1.0345640182495115,-1.2798479795455933,jumping
1783087575945844200,1.81384423828125,-1.271511489548534,4.88696890848279,-9.818575415593385,-0.574612557888031,0.9358603358268738,-0.944389820098877,jumping
1783087575955888000,1.82388818359375,-0.5939375874813646,5.023660521429777,-7.549623936915397,-0.073652759194374,0.8186187744140625,-0.5824018716812134,jumping
1783087575965932000,1.83393212890625,0.2979515942329541,4.354438779579103,-4.668403898969292,0.3240586519241333,0.6548359990119934,-0.250078797340393,jumping
1783087575975977500,1.8439775390625,0.6798516377408057,3.134332044705749,-1.2838456320732832,0.564055860042572,0.4034284651279449,-0.0620209164917469,jumping
1783087575986021600,1.854021728515625,1.1625536136362702,1.4969596827045082,2.2186066083192824,0.7166531085968018,0.0836778730154037,-0.0021067187190055,jumping
1783087575996065300,1.864065185546875,1.5119805800952015,-0.0020440730482339,5.514408148875832,0.813278079032898,-0.3012632727622986,-0.011299236677587,jumping
1783087576006110500,1.8741103515625,1.2045585987381635,-1.140498506759852,8.561134975364803,0.8757312893867493,-0.740794837474823,-0.0730542093515396,jumping
1783087576016154600,1.884154541015625,0.2870524894800037,-1.573595909269899,11.696175460600852,0.901544153690338,-1.3058940172195437,-0.1321863979101181,jumping
1783087576026199600,1.894199462890625,-0.7391170427884907,-1.19608434651196,14.031394185912609,0.8617221713066101,-1.9218565225601196,-0.128116026520729,jumping
1783087576036243500,1.904243408203125,-1.179585120197013,-0.1891485070236027,15.593928749072552,0.737329363822937,-2.5357096195220947,-0.0440437644720077,jumping
1783087576046287600,1.91428759765625,-1.038609254059568,0.860185627733171,16.480450887328384,0.5710373520851135,-3.0959534645080566,0.139661893248558,jumping
1783087576056332500,1.92433251953125,-0.2067773949556052,1.3441514860846102,16.307971337163448,0.4164147078990936,-3.5520694255828857,0.3529512882232666,jumping
1783087576066376400,1.93437646484375,1.2340648253381252,1.410454973075539,14.934468815040589,0.3073351085186004,-3.78395414352417,0.4949678182601928,jumping
1783087576076420600,1.944420654296875,2.6173779628574847,1.3037071013629435,13.355691557610037,0.2230743020772934,-3.7996222972869873,0.5893775224685669,jumping
1783087576086465300,1.95446533203125,3.4988436945065855,1.0109104422077535,11.91552080683708,0.2000371664762497,-3.55820631980896,0.6743195652961731,jumping
1783087576096509400,1.964509521484375,3.668231416136026,0.751960084683448,10.526794996619223,0.2522893249988556,-2.919576644897461,0.7586742043495178,jumping
1783087576106553600,1.9745537109375,3.348992740257084,0.54395694732517,9.75610522315502,0.282075971364975,-2.0318593978881836,0.8470474481582642,jumping
1783087576116598300,1.984598388671875,2.946520777635276,0.0726712684571743,9.19041195257902,0.1869046688079834,-1.0320618152618408,0.8492117524147034,jumping
1783087576126642400,1.994642333984375,2.4078943776831028,-0.4546773661553859,8.68962282359004,-0.0137416245415806,0.041947316378355,0.7784931063652039,jumping
1783087576136686600,2.0046865234375,2.028794815081358,-0.9716361241787672,8.454957158625126,-0.2593075335025787,1.0366860628128052,0.6671226620674133,jumping
1783087576146731300,2.014731201171875,2.066537393498421,-1.466797184152901,8.387288813021778,-0.4962194263935089,1.8278486728668213,0.5008862614631653,jumping
1783087576156775400,2.024775390625,2.02502830215469,-1.799486293235421,8.222115201956033,-0.7171235084533691,2.322437047958374,0.3431485295295715,jumping
1783087576166819600,2.034819580078125,1.7548269211672245,-2.2640587382003665,7.930994074797629,-0.910070300102234,2.555978536605835,0.1823450028896331,jumping
1783087576176864500,2.044864501953125,1.1923217791080474,-2.5324609608113766,7.753126401853561,-1.1285449266433716,2.595276117324829,0.0410123504698276,jumping
1783087576186908400,2.054908447265625,0.7199686171390116,-2.9842770923167463,8.047751153218746,-1.2383164167404177,2.4488682746887207,-0.0538888610899448,jumping
1783087576196952600,2.06495263671875,0.3535457268893718,-3.5895351883009075,8.840114413830637,-1.145781397819519,2.0430757999420166,-0.1143831685185432,jumping
1783087576206997500,2.07499755859375,0.3966553122323006,-4.264061758561432,9.475224919503926,-0.891236424446106,1.4769463539123535,-0.2045599371194839,jumping
1783087576217041400,2.08504150390625,0.7068081798579543,-4.297579705020785,9.696491004669666,-0.6214833855628967,0.8983770608901978,-0.2681500315666199,jumping
1783087576227085600,2.09508544921875,0.9981847430821508,-3.923561098945141,9.323698140996694,-0.3733494579792022,0.3325397372245788,-0.2910990417003631,jumping
1783087576237130500,2.105130615234375,1.13389077905789,-3.5458655579224225,8.37251619130373,-0.1385716497898101,-0.0279427245259284,-0.3173021376132965,jumping
1783087576247174400,2.11517431640625,1.2528092732965943,-3.007226298488676,8.096321999642253,0.0239038243889808,-0.1662555932998657,-0.3610288202762604,jumping
1783087576257219600,2.125219482421875,1.2421645451635122,-2.113855024990439,8.646138486650585,0.0612909495830535,-0.204003632068634,-0.3536539077758789,jumping
1783087576267263500,2.135263427734375,1.4616712194412946,-0.9064014354631303,9.341901321685311,-0.0288402754813432,-0.2174707055091858,-0.2284283488988876,jumping
1783087576277307400,2.145307373046875,1.911679717002809,-0.0703539314255118,9.635576809501648,-0.222511425614357,-0.2688830494880676,-0.0216640289872884,jumping
1783087576287352600,2.1553525390625,2.1415745143041014,0.1181675297409296,9.473171494105458,-0.3972368836402893,-0.3537867367267608,0.1713176816701889,jumping
1783087576297396500,2.165396484375,1.4712906961798666,-0.0340758726030588,9.061934041225909,-0.4373334944248199,-0.4769892990589142,0.2918860912322998,jumping
1783087576307440600,2.175440673828125,0.0313809344306588,-0.0990498645558953,7.990593680235743,-0.3214247226715088,-0.6202309131622314,0.3738819062709808,jumping
1783087576317485600,2.185485595703125,-0.8200082233846188,-0.2441895723745226,6.728425042441487,0.0073388344608247,-0.779684841632843,0.4069122076034546,jumping
1783087576327529500,2.195529541015625,-0.4720234916232526,-0.6885813990980386,5.790851346862316,0.3893623650074005,-1.036208987236023,0.3514561355113983,jumping
1783087576337573600,2.20557373046875,1.266894058880955,-0.1786141073971986,4.387738699373602,0.5410041809082031,-1.301387071609497,0.2295518070459365,jumping
1783087576347618600,2.21561865234375,1.9292011990375817,3.109929424855113,1.6251760205119847,0.5444106459617615,-1.039145827293396,0.2994438111782074,jumping
1783087576357662500,2.225662353515625,0.1946339526973664,5.451009735676646,-1.3510592196464537,0.3749833405017853,-0.0077646118588745,0.4219070971012115,jumping
1783087576367706600,2.23570654296875,-2.578154790493846,4.882611005534232,-1.56750007661283,-0.0214329827576875,1.2127463817596436,0.3827532827854156,jumping
1783087576377751600,2.24575146484375,-4.685170324853062,3.3304087435573337,-4.162180469971895,-0.7404279112815857,2.6455516815185547,0.1434454023838043,jumping
1783087576387795500,2.25579541015625,-4.109577591553331,2.472251991303265,-8.669737388902902,-1.1750179529190063,3.909112453460694,-0.0439364798367023,jumping
1783087576397839600,2.265839599609375,-2.3069588455110788,1.1285519022479653,-16.42331854878664,-1.3227531909942627,5.138098239898682,-0.3615705966949463,jumping
1783087576407884300,2.27588427734375,2.6491762459173795,-4.302134591846168,-20.96304053826332,-1.368635892868042,5.66202974319458,-0.8999890685081482,jumping
1783087576417928400,2.285928466796875,7.240427639362216,-4.69131861834973,-21.472687511968612,-1.3540796041488647,5.179477691650391,-1.0981576442718506,jumping
1783087576427972600,2.29597265625,7.121934530928731,-2.911042929279804,-20.912173105335235,-0.8587551116943359,4.180960178375244,-0.956192672252655,jumping
1783087576438017300,2.306017333984375,4.050572444877028,-1.5318237830758097,-17.179043392831087,-0.0162387881428003,2.795562267303467,-0.6140422821044922,jumping
1783087576448061400,2.3160615234375,-0.2610591663718223,-1.2632535104215143,-13.184941023194789,0.8681176900863647,1.3228882551193235,-0.4513359069824219,jumping
1783087576458105600,2.326105712890625,-1.2969430140554905,-1.2715221570730209,-7.840654463180899,1.401818037033081,-0.2542855441570282,-0.4129123389720917,jumping
1783087576468150300,2.336150390625,-0.9434587350297718,0.2418865561291575,-5.605360923954844,1.3314567804336548,-1.9441657066345217,-0.3179027438163757,jumping
1783087576478194400,2.3461943359375,0.1780623187333345,0.5412821751579642,-8.585604815232752,0.8552587628364563,-2.848738193511963,-0.4337814152240753,jumping
1783087576488239600,2.356239501953125,-0.587115815169923,1.2567065729960798,-6.757917678907513,0.9973291158676147,-3.8468918800354,-0.1765211075544357,jumping
1783087576498283300,2.366283203125,-0.4114685582216829,-0.2318114445775747,-9.91347371342778,0.9295182824134828,-4.61143684387207,-0.2004886269569397,jumping
1783087576508327400,2.376327392578125,-0.1092112113525159,-0.3892342953860759,-13.083361640161275,0.8119801878929138,-4.9427080154418945,-0.2188631147146225,jumping
1783087576518372600,2.38637255859375,0.4121315521750598,1.1064008607164024,-16.127446427708865,0.5650255680084229,-4.789175987243652,-0.1023561134934425,jumping
1783087576528416500,2.39641650390625,0.5092223916176706,2.6639900764286515,-19.075850827133653,0.2610528469085693,-4.012580394744873,0.0973897576332092,jumping
1783087576538460400,2.40646044921875,-0.1400252874143421,3.897802388310432,-19.27914169514775,-0.007522327825427,-2.9322307109832764,0.2968229651451111,jumping
1783087576548505600,2.416505615234375,-1.3640597171254456,4.260508449994028,-17.64306843304634,-0.0423540771007537,-1.8583449125289917,0.5059764385223389,jumping
1783087576558549500,2.426549560546875,-2.345131485908478,4.419259626796841,-15.177423000401255,0.0865256041288375,-0.8905068039894104,0.735106885433197,jumping
1783087576568593400,2.436593505859375,-2.336088640014082,4.1064775797113775,-12.6696545822978,0.0734113976359367,-0.1369368731975555,0.9300937056541444,jumping
1783087576578638600,2.446638671875,-2.0178331299535928,3.730371938228607,-11.29335687649846,-0.0424003079533577,0.3810420632362366,1.1003097295761108,jumping
1783087576588682500,2.4566826171875,-1.502617708466202,3.5207574201509355,-10.767444996690749,0.0777037292718887,0.6485158801078796,1.239840745925903,jumping
1783087576598726400,2.466726318359375,-0.6838283593520522,2.7330469537809488,-9.98565632158518,0.475140243768692,0.6261811256408691,1.2841517925262451,jumping
1783087576608771600,2.476771484375,0.2098429200060665,1.512243030423671,-9.1452991376549,0.902270257472992,0.3724883794784546,1.1670771837234497,jumping
1783087576618815500,2.4868154296875,0.8262630459956825,0.6324659825138748,-8.302459489259123,1.0602325201034546,0.0320619866251945,0.8947649598121643,jumping
1783087576628859400,2.496859375,1.1309973957039414,0.8416691433116793,-6.161091603443026,0.987149178981781,-0.2124135494232177,0.6165266633033752,jumping
1783087576638904600,2.506904541015625,1.0168779723100363,1.288371731195599,-3.318450010216236,0.7947930097579956,-0.2032595127820968,0.3055351376533508,jumping
1783087576648948500,2.516948486328125,0.3498404426306486,2.1220802708916366,1.4510714994937182,0.6050865054130554,-0.3044971823692322,0.144937977194786,jumping
1783087576658992600,2.52699267578125,-0.3966729209542274,1.5604441667519509,6.013076632449031,0.4254060387611389,-0.4852607250213623,0.0421869792044162,jumping
1783087576669037600,2.53703759765625,-0.1785204377643764,0.2468066230051219,9.855990661752225,0.2102108895778656,-0.7649381756782532,-0.0462720468640327,jumping
1783087576679081500,2.54708154296875,1.0011858976595105,0.0252237269751727,13.01401396316886,-0.0077534317970275,-1.320584058761597,-0.0388281047344207,jumping
1783087576689125600,2.557125732421875,1.4046945098526775,0.5530773885004222,14.383252982628346,-0.2183785736560821,-1.9476501941680908,0.0224182084202766,jumping
1783087576699170600,2.567170654296875,1.6992003110133111,0.8731979617804289,15.050464845961333,-0.4057506620883941,-2.561098098754883,0.0914816707372665,jumping
1783087576709214500,2.57721435546875,2.0707975351609287,0.6557549420341849,15.2293016561985,-0.5835901498794556,-3.1596004962921143,0.1265760213136673,jumping
1783087576719258600,2.587258544921875,2.579653796879947,-0.3056695847317576,14.695999081617591,-0.6947658658027649,-3.632136344909668,0.0824868455529213,jumping
1783087576729303300,2.59730322265625,3.3471678629174826,-1.063354476802796,13.732533988934756,-0.7069538235664368,-3.894589424133301,-0.0169348120689392,jumping
1783087576739347500,2.607347412109375,3.898270590344071,-1.5139466194711624,12.500047372698782,-0.6263600587844849,-3.877392530441284,-0.1950818002223968,jumping
1783087576749391600,2.6173916015625,3.8982568540796634,-1.5405987718142569,10.619860233807564,-0.4968164563179016,-3.4565398693084717,-0.3767951130867004,jumping
1783087576759436300,2.627436279296875,3.468297165073454,-0.8691327581681311,8.792248500806092,-0.4057765603065491,-2.610968828201294,-0.4418897926807403,jumping
1783087576769480400,2.63748046875,3.248459651406109,-0.2828796607747674,8.51089824155569,-0.2898086607456207,-1.5673167705535889,-0.3466961681842804,jumping
1783087576779525600,2.647525634765625,3.393227895563841,-0.7443781051218509,8.194348074108362,-0.2068026065826416,-0.4983466565608978,-0.2635248303413391,jumping
1783087576789569300,2.6575693359375,3.631927930611371,-1.6187147155433892,7.432065478983521,-0.2348954975605011,0.4157362580299377,-0.2796430885791778,jumping
1783087576799613400,2.667613525390625,3.642503685161471,-2.189739264144748,6.474561340531706,-0.3284766674041748,1.1809260845184326,-0.3542458117008209,jumping
1783087576809658600,2.67765869140625,3.216256879198551,-2.8408588014632463,5.93012128586471,-0.3972312211990356,1.868820309638977,-0.4914121925830841,jumping
1783087576819702300,2.687702392578125,3.0885967139691113,-3.5290199293226,6.350805781525373,-0.4195713698863983,2.3390743732452393,-0.6588590741157532,jumping
1783087576829746400,2.697746337890625,3.2740845065280793,-3.848617209380865,7.266131404939293,-0.3569756150245666,2.496021270751953,-0.8355536460876465,jumping
1783087576839791600,2.70779150390625,3.123284288729727,-3.859175428274274,8.044327023988961,-0.2519571185111999,2.4219484329223633,-1.0273512601852417,jumping
1783087576849835500,2.71783544921875,2.881654922232032,-3.784522046089172,8.751792571777106,-0.1661266535520553,2.1607072353363037,-1.1956886053085327,jumping
1783087576859879400,2.72787939453125,2.5760838294386863,-3.713603466518223,9.213256237071752,-0.0822022184729576,1.7626947164535522,-1.2921122312545776,jumping
1783087576869924600,2.737924560546875,2.5015394605860113,-3.6336446714013815,9.328547919115424,0.0380072742700576,1.3068939447402954,-1.333158254623413,jumping
1783087576879968500,2.747968505859375,2.4888851461961865,-3.3313004317000505,9.109729227101802,0.2154412865638733,0.8202667832374573,-1.3015897274017334,jumping
1783087576890012400,2.758012451171875,2.6907024345263837,-2.8413249576702713,8.61129162967503,0.4296539723873138,0.4011837542057037,-1.200237274169922,jumping
1783087576900057600,2.7680576171875,3.2400998193398114,-2.491770638504624,8.053379514494537,0.6229105591773987,0.0313895940780639,-1.0603272914886477,jumping
1783087576910101500,2.7781015625,3.701159287747741,-2.0672747678622603,7.665145336061715,0.8039381504058838,-0.2515507638454437,-0.917269766330719,jumping
1783087576920145400,2.7881455078125,3.82577993915081,-1.5129260442517698,7.6770590612173075,0.9463008642196656,-0.5409026741981506,-0.7969546318054199,jumping
1783087576930190600,2.798190673828125,3.9291108420267697,-1.0483286109760404,7.778022358179092,0.9666516780853271,-0.8050482869148254,-0.6475715041160583,jumping
1783087576940234500,2.808234375,3.945550520174205,-0.2686043210543692,8.112409211090206,0.8519023060798645,-1.0406919717788696,-0.370874285697937,jumping
1783087576950278400,2.8182783203125,4.09796752551943,0.511170237749815,8.919249909865856,0.74748295545578,-1.273248553276062,-0.0595337189733982,jumping
1783087576960323600,2.828323486328125,4.551480816331505,1.4486884037494658,10.311513246560096,0.6841384172439575,-1.6800198554992676,0.2227599471807479,jumping
1783087576970367500,2.838367431640625,3.860658652569353,2.933027966594696,11.589993552207948,0.6419076323509216,-2.2671937942504883,0.5583829283714294,jumping
1783087576980411600,2.84841162109375,2.849034509134293,3.883547068464756,11.15439614957571,0.7119522094726562,-2.7904393672943115,0.9317118525505066,jumping
1783087576990456600,2.85845654296875,2.844877097193897,4.49136332449913,8.215801781025528,0.9593095183372498,-2.9927725791931152,1.2965598106384275,jumping
1783087577000500700,2.868500732421875,2.0839564380720255,4.854918988749384,5.9820297522783275,1.373754858970642,-3.049354553222656,1.6125924587249756,jumping
1783087577010545000,2.878544921875,2.7396654951378703,4.508808380296826,3.1894039435863495,1.6771270036697388,-2.654149055480957,1.858680248260498,jumping
1783087577020589600,2.888589599609375,4.446505945640802,3.1759622782111165,1.2801257347673176,1.6392786502838137,-2.1436214447021484,1.8606191873550415,jumping
1783087577030633700,2.8986337890625,0.877526346373558,3.257259336194396,-0.3172808198094368,1.076757311820984,-1.5839253664016724,1.9022258520126345,jumping
1783087577040678000,2.908677978515625,-6.233501006093621,4.000920817479491,-3.761798757627606,0.1604061424732208,-0.6406525373458862,2.1857705116271973,jumping
1783087577050722600,2.91872265625,-13.154369359320402,2.4517507628053425,-9.56638169272244,-0.7181206345558167,1.2547208070755005,2.2625675201416016,jumping
1783087577060766700,2.9287666015625,-12.476004818332196,-5.234282462984323,-18.304574193692208,-1.5055285692214966,3.840416193008423,1.5248967409133911,jumping
1783087577070811600,2.938811767578125,-8.127034533292054,-8.477723701706529,-25.598191571450233,-2.285332679748535,5.909322738647461,0.2307157516479492,jumping
1783087577080855600,2.94885546875,-2.83072494546175,-2.804023985540866,-21.5715932918787,-2.1272506713867188,5.857427597045898,-0.5379025936126709,jumping
1783087577090899700,2.958899658203125,-2.0916589752733707,-0.9018399727664888,-12.786468943864106,-0.954367697238922,3.9848456382751465,-0.8056320548057556,jumping
1783087577100944600,2.968944580078125,-4.309156453306973,1.8016047466941176,-9.8825560125947,0.2874345481395721,2.0512638092041016,-0.6700640916824341,jumping
1783087577110988500,2.978988525390625,-5.7964814617037765,1.3107675412684678,-7.2016983879953615,1.1510521173477173,0.6632424592971802,-0.2648588120937347,jumping
1783087577121032700,2.98903271484375,-5.9632467258751385,-1.616514575150609,-5.814609239068627,1.4543288946151731,-0.0425200089812278,-0.2518145143985748,jumping
1783087577131078000,2.999077880859375,-3.284182706694305,-2.2827375735767186,-5.866633440816402,1.085985541343689,-0.390068382024765,-0.5704430937767029,jumping
1783087577141121500,3.00912158203125,-2.6964769262745976,-3.12015505079329,-4.591058793482184,0.5660513043403625,-0.9136539101600648,-0.8508878350257874,jumping
1783087577151165700,3.019165771484375,-4.235442105537652,-5.816238886097073,-6.352206880494951,0.060201920568943,-1.431729793548584,-1.2587146759033203,jumping
1783087577161211000,3.0292109375,-5.226489617151022,-5.837659859788418,-9.258322290244696,-0.3729005753993988,-1.8264740705490112,-1.6151820421218872,jumping
1783087577171254500,3.039254638671875,-6.323036900112032,-1.8308415087029335,-14.135082523924112,-0.5274608731269836,-1.7570103406906128,-1.5769699811935425,jumping
1783087577181298700,3.049298583984375,-6.228010591983795,1.6952881060056388,-18.014066814517975,-0.3574563860893249,-1.206565260887146,-1.2953633069992063,jumping
1783087577191343900,3.05934375,-5.460087360623478,4.189406915071606,-19.009534480661152,-0.0798761621117591,-0.5133344531059265,-0.8576322793960571,jumping
1783087577201387500,3.069387451171875,-4.914442021819949,4.648972930051386,-17.738827147102356,0.0905142873525619,0.0591237545013427,-0.3141689896583557,jumping
1783087577211431700,3.079431640625,-4.9297985809057945,3.242271610420942,-13.563879550015926,0.2249554544687271,0.238816812634468,0.0820843502879142,jumping
1783087577221476900,3.089476806640625,-5.653332050919532,2.1139638921923933,-9.43536228019297,0.2498718798160553,0.191513255238533,0.3429699242115021,jumping
1783087577231520800,3.099520751953125,-6.225842015773058,1.0794640462130307,-7.56345606291294,0.0127389524132013,0.2495113015174865,0.431776762008667,jumping
1783087577241564700,3.109564697265625,-6.293502762591839,-0.0908852628007531,-7.436726456531882,-0.3036827445030212,0.4956912696361542,0.3122954368591308,jumping
1783087577251609600,3.119609619140625,-5.1369262506037945,-0.5349196543887257,-8.797313382980226,-0.4682040214538574,0.6502427458763123,0.0966238528490066,jumping
1783087577261653800,3.12965380859375,-3.629975919760763,0.1339902450338005,-11.52659163187742,-0.5058736205101013,0.6793498396873474,-0.2255758792161941,jumping
1783087577271697700,3.13969775390625,-3.060380965571105,1.4896394228190182,-13.919533062839507,-0.4903005063533783,0.6575033664703369,-0.5477427244186401,jumping
1783087577281742600,3.14974267578125,-2.8045316428020595,2.6975211746305225,-13.350470608091353,-0.4195083677768707,0.4875177443027496,-0.7400489449501038,jumping
1783087577291786800,3.159786865234375,-2.5830504535809156,4.168703734260797,-11.2381125436604,-0.3676007091999054,0.2407569587230682,-0.7284572720527649,jumping
1783087577301830700,3.16983056640625,-2.5723016805514693,3.810979260382056,-7.79445677562952,-0.3175041079521179,-0.1029781401157379,-0.6475347280502319,jumping
1783087577311875600,3.17987548828125,-1.815418898643553,1.9908814101420345,-4.5561131523072715,-0.205790102481842,-0.3352225720882416,-0.7996265292167664,jumping
1783087577321919700,3.189919677734375,-1.0793848434969782,0.6143209617532789,-1.2164958508998154,-0.0683639049530029,-0.5800876617431641,-0.938354194164276,jumping
1783087577331964000,3.1999638671875,0.1944707249596715,-0.7716288078799843,2.0911469340980053,-0.0703468918800354,-0.9155538082122804,-0.965481460094452,jumping
1783087577342008600,3.210008544921875,1.951284874421358,-0.7847710519172251,3.902249430847168,-0.2469478398561477,-1.090399980545044,-0.9372183680534364,jumping
1783087577352052700,3.220052734375,3.4292724378913637,0.3492727257452905,6.065686525130271,-0.579095184803009,-1.246601104736328,-0.7119437456130981,jumping
1783087577362097000,3.230096923828125,4.470868818002939,-0.2497599198527634,8.675693666958809,-0.7405088543891907,-1.7911293506622314,-0.4005443453788757,jumping
1783087577372141600,3.2401416015625,3.997756508229673,-0.5619771726623177,8.112484614413976,-0.7771453857421875,-2.092362642288208,-0.2385786026716232,jumping
1783087577382185700,3.250185791015625,3.737843589283526,-0.1822821283854544,9.412083695936202,-0.5504826903343201,-2.2577707767486572,-0.1144374161958694,jumping
1783087577392230000,3.26022998046875,3.8684620197966697,0.2215109998375177,11.634925749868154,-0.1895061135292053,-2.364833354949951,0.0428494177758693,jumping
1783087577402274600,3.270274658203125,4.0830160401031375,0.4553898983389139,13.465338511765005,0.1737038046121597,-2.511099338531494,0.1889017969369888,jumping
1783087577412318700,3.280318603515625,4.845190206417441,0.1770369212083518,14.26764858137369,0.4193521738052368,-2.5576586723327637,0.3295835256576538,jumping
1783087577422363600,3.29036376953125,5.771034885758161,-0.2672080443903804,14.080031083309647,0.5078974366188049,-2.3252923488616943,0.4634145498275757,jumping
1783087577432407600,3.300407470703125,6.658489336428046,-0.6150152276277542,13.151267886173724,0.4525233507156372,-1.863243579864502,0.5901296734809875,jumping
1783087577442451700,3.31045166015625,8.179512324026227,-0.1454261235445737,12.2287333542943,0.2008702754974365,-1.4145760536193848,0.5744079351425171,jumping
1783087577452496600,3.32049658203125,8.734795259746909,0.7995141552798449,11.353266863059996,0.0196962188929319,-0.952118992805481,0.532496452331543,jumping
1783087577462540500,3.33054052734375,8.04802354041934,0.8422602410726249,9.94758991804123,-0.1239493042230606,-0.5039834380149841,0.577656090259552,jumping
1783087577472584700,3.340584716796875,7.215292613583803,0.3512970711797475,7.994751384437084,-0.2760661244392395,-0.0380127727985382,0.6257506608963013,jumping
1783087577482630000,3.3506298828125,6.115872405534982,-0.3975215006075799,5.943001225703954,-0.4473649561405182,0.4700857698917389,0.7429437041282654,jumping
1783087577492673500,3.360673583984375,4.924878660160303,-1.297184421595931,4.632358772119879,-0.6190446019172668,1.0869630575180054,0.854668378829956,jumping
1783087577502717700,3.3707177734375,3.8638960270553824,-1.839398178515583,4.251383186513185,-0.6926566362380981,1.7336418628692627,0.8875160217285156,jumping
1783087577512763000,3.380762939453125,2.8429116423398253,-2.030005067653954,4.087921640062332,-0.5887067914009094,2.3868627548217773,0.8551024198532104,jumping
1783087577522806500,3.390806640625,2.2013012532532215,-2.445935354524851,4.311405985799431,-0.3251315653324127,2.930429458618164,0.7722331881523132,jumping
1783087577532850700,3.4008505859375,2.2894600136995313,-2.7725200092524287,5.21388674068749,0.0137865804135799,3.285484552383423,0.6256517767906189,jumping
1783087577542895900,3.410895751953125,3.1973727305084467,-2.6255577621817587,6.68552347382605,0.2289918065071106,3.319331645965576,0.419594794511795,jumping
1783087577552939800,3.420939697265625,4.0224811996415255,-2.320739095190912,8.077598009949922,0.2123345285654068,3.05690860748291,0.2118735611438751,jumping
1783087577562983700,3.430983642578125,4.388464675560593,-2.4062045249000192,9.32376243840456,0.0244574025273323,2.5877726078033447,0.0255367159843444,jumping
1783087577573028600,3.441028564453125,4.316986708541214,-2.6840590509891507,9.847518601483106,-0.2229462713003158,2.051431655883789,-0.1509613543748855,jumping
1783087577583072800,3.45107275390625,4.096761072339118,-2.673312908308208,9.531351295873522,-0.4627859890460968,1.5975704193115234,-0.2626193463802337,jumping
1783087577593116700,3.46111669921875,3.9651302499130368,-2.8194641312569377,9.34929610811174,-0.5222200751304626,1.237550973892212,-0.333841323852539,jumping
1783087577603161600,3.47116162109375,3.447487601278722,-2.5542495987713334,8.806398022189736,-0.3151151239871979,1.0392731428146362,-0.3586258590221405,jumping
1783087577613205800,3.481205810546875,3.5793811662942168,-2.0605714708313343,8.520181033685803,0.0230203345417976,0.927229106426239,-0.3822933435440063,jumping
1783087577623249700,3.491249755859375,3.970968454547226,-1.1530988990053537,8.418979836314916,0.3632577657699585,0.7685838341712952,-0.3745328485965729,jumping
1783087577633294600,3.501294677734375,4.250279901446402,-0.2129443931527435,8.18543586885631,0.588945746421814,0.5141430497169495,-0.2691236138343811,jumping
1783087577643338800,3.5113388671875,4.286953389327228,-0.0208041569672524,8.087011734983324,0.7326896786689758,0.1990308761596679,-0.0846155956387519,jumping
1783087577653382700,3.521382568359375,3.4902664202973246,0.0856074685283005,8.208118825307489,0.8362650275230408,-0.1420177817344665,0.1497684270143509,jumping
1783087577663427600,3.531427490234375,2.2484835679277775,0.9316134720005096,7.682794974520802,0.9141100645065308,-0.2887495756149292,0.4550613760948181,jumping
1783087577673471700,3.5414716796875,1.2079895961001514,2.019892838962376,7.373537302169203,0.9159055948257446,-0.4157243072986603,0.7586106657981873,jumping
1783087577683516000,3.551515869140625,0.8132637175604701,2.909672517709434,6.20826836515963,0.7019724249839783,-0.4169541001319885,1.0023459196090698,jumping
1783087577693560600,3.561560546875,2.791790819172561,3.9851828578606248,4.670669505813717,0.3255183398723602,-0.5270470976829529,1.1037346124649048,jumping
1783087577703604700,3.571604736328125,0.034480069489777,5.43397501424551,1.327651456052065,0.0100866835564374,-0.4834071397781372,1.306330919265747,jumping
1783087577713649000,3.58164892578125,-3.0901065340101717,5.75130493389368,-2.5236639063715933,-0.0960820987820625,0.0471347719430923,1.7406760454177856,jumping
1783087577723693600,3.591693603515625,-4.903255734156072,5.102419000846147,-7.350302557054162,0.1507137715816497,1.2891581058502195,2.0972394943237305,jumping
1783087577733737700,3.60173779296875,-6.1554994825243945,1.467584242877364,-11.60917872967124,0.3837078809738159,2.6938841342926025,1.790468692779541,jumping
1783087577743782700,3.61178271484375,-4.1812423133164645,-5.011861362564564,-15.69771879389286,-0.0799525082111358,4.035921573638916,0.9107534289360046,jumping
1783087577753826600,3.62182666015625,-4.59785561401546,-6.748439071944356,-20.4188740398407,-1.002267837524414,5.07982873916626,0.1379898339509964,jumping
1783087577763870700,3.63187060546875,-2.2433570186942813,-6.711266402369737,-19.291424838137623,-1.3836390972137451,5.2224440574646,-0.4605439007282257,jumping
1783087577773915600,3.64191552734375,-1.5607324821740387,-2.6476509360462424,-15.680847154068946,-0.7844294309616089,4.545566082000732,-0.7421942353248596,jumping
1783087577783959600,3.65195947265625,-1.89124629304409,2.0502987908810377,-11.859369296026228,0.3483047783374786,3.2783470153808594,-0.6956809759140015,jumping
1783087577794003700,3.662003662109375,-1.994778855971992,3.1374650820344683,-7.891943336391448,1.146273851394653,1.8257914781570437,-0.6491568684577942,jumping
1783087577804049000,3.672048828125,-2.369518323668093,2.228655708646774,-6.028930619663,1.074642777442932,0.4728616178035736,-0.5921254754066467,jumping
1783087577814092500,3.682092529296875,-1.8845935571566224,0.1846767684370279,-4.292843324148655,0.5852152705192566,-0.8636524081230164,-0.6692708730697632,jumping
1783087577824136700,3.69213671875,-2.073625013671815,-2.7285265537470575,-3.196622204402089,0.259914755821228,-2.1185765266418457,-0.9102393388748168,jumping
1783087577834182000,3.702181884765625,-3.4130402650147675,-4.877742230454087,-5.313543046703934,0.170946255326271,-2.78574800491333,-1.1612249612808228,jumping
1783087577844225500,3.7122255859375,-4.012576768481731,-3.806872994107008,-8.372246142190694,0.1537007242441177,-2.9621613025665283,-1.181432843208313,jumping
1783087577854269700,3.722269775390625,-2.360968229726702,-0.1114757770173251,-12.21782383774519,0.105464220046997,-2.7830803394317627,-0.8256800770759583,jumping
1783087577864315000,3.73231494140625,-0.2030843856565654,3.875884863273799,-16.391358060902355,0.0548192337155342,-2.615737199783325,-0.1948822438716888,jumping
1783087577874358500,3.742358642578125,0.7178641922056674,7.496815891313552,-21.060908207297324,0.128789335489273,-2.198201894760132,0.6097337603569031,jumping
1783087577884402700,3.752402587890625,0.4751683655202388,7.928229870781302,-22.63984445468187,0.3610142171382904,-1.727814555168152,1.40378999710083,jumping
1783087577894447600,3.762447509765625,-1.8805904589951037,4.760702535699307,-20.454034200549124,0.7528046369552612,-1.2868367433547974,1.8144409656524656,jumping
1783087577904491800,3.77249169921875,-5.016085117739439,1.107420266892016,-15.195256763255594,1.0182489156723022,-1.1476587057113647,1.7773882150650024,jumping
1783087577914535700,3.78253564453125,-6.63319239808619,-0.3106058720901608,-10.519831002825498,1.0213541984558103,-1.1273404359817505,1.4509509801864624,jumping
1783087577924580600,3.79258056640625,-6.100242874726653,0.5706792422950268,-8.852278898876905,0.7809027433395386,-0.9283031225204468,1.0185545682907104,jumping
1783087577934624800,3.802624755859375,-4.619849711419642,2.407841770713031,-9.72608300985694,0.4174211621284485,-0.4908469319343567,0.5747326016426086,jumping
1783087577944668700,3.812668701171875,-3.41545112554878,3.900466054561734,-11.118237625479695,-0.0700319185853004,0.0913462564349174,0.2352671474218368,jumping
1783087577954713600,3.822713623046875,-2.636299228687584,4.303052583473921,-11.61907936143875,-0.5101594924926758,0.6412237882614136,0.0734569430351257,jumping
1783087577964757800,3.8327578125,-2.4496162349946795,3.4985856280922887,-12.323575538027288,-0.6947434544563293,0.926236629486084,-0.0838254764676094,jumping
1783087577974801700,3.8428017578125,-2.506369657221436,2.9533108761668205,-12.235488089251518,-0.6663703918457031,1.204024314880371,-0.2883343994617462,jumping
1783087577984846000,3.85284619140625,-1.669841530060023,3.0486908200383183,-8.411443011069297,-0.5982105731964111,1.258832931518555,-0.3789446949958801,jumping
1783087577994890000,3.862889892578125,-0.9060371321953832,2.832396093544364,-3.922444662135839,-0.5401701331138611,1.1424105167388916,-0.3777345716953277,jumping
1783087578004934100,3.87293408203125,-0.4188290770523249,2.0608494109898805,-0.2145598655253648,-0.4444566965103149,1.028673529624939,-0.3465864360332489,jumping
1783087578014979000,3.88297900390625,0.7628484123140573,1.4534439277134834,3.8038767349004745,-0.3232839405536651,0.7935445308685303,-0.288818210363388,jumping
1783087578025023000,3.89302294921875,1.9927412126645443,0.9424157287828624,6.752960348761081,-0.2145092040300369,0.4688059687614441,-0.2102449238300323,jumping
1783087578035067100,3.903067138671875,2.530298229819536,0.2251267061166465,8.624911574226617,-0.1421630978584289,0.1401029378175735,-0.1666298061609268,jumping
1783087578045112000,3.913112060546875,2.443296092062443,-0.5905144080996513,10.133262127256392,-0.1308508515357971,-0.2038337737321853,-0.1625340431928634,jumping
1783087578055156000,3.923156005859375,2.290167431316525,-0.7389855984285474,11.243556780540942,-0.133512407541275,-0.5980601906776428,-0.1635260730981826,jumping
1783087578065200000,3.9332001953125,2.4234379837736486,-0.6352313555739819,11.932761864495276,-0.11926981061697,-1.044474959373474,-0.1332407295703888,jumping
1783087578075245000,3.9432451171875,2.910625872911513,-0.7670334429137409,12.27127251933813,-0.0942411571741104,-1.446925401687622,-0.0440197736024856,jumping
1783087578085289000,3.9532890625,3.352168447683751,-0.9028720922932028,12.627613429903985,-0.1052156835794448,-1.8014395236968994,0.0717480778694152,jumping
1783087578095333000,3.9633330078125,3.7663469224512576,-1.0671496313020583,12.779848648941517,-0.166586622595787,-2.0399913787841797,0.2049471586942672,jumping
1783087578105378000,3.9733779296875,4.085970505994558,-1.4271803362965585,12.402525740623473,-0.1737468689680099,-2.0044968128204346,0.2746791541576385,jumping
1783087578115422000,3.983421875,3.813915313833952,-1.8876774946466088,12.062925536978245,-0.0060984687879681,-1.6809852123260498,0.2702521681785583,jumping
1783087578129859000,3.997859130859375,3.4782293610230086,-2.162247446107119,12.174744574475287,0.3277976214885711,-0.8849990963935852,0.2469030916690826,jumping
1783087578139904000,4.007904052734375,2.963319644483924,-2.245208637910336,11.888111406385898,0.4289939105510711,-0.2246766239404678,0.2296802252531051,jumping
1783087578149948200,4.0179482421875,2.4012720369338987,-2.1929558881036937,10.956903738707304,0.3899176120758056,0.4244467914104461,0.207747220993042,jumping
1783087578159993000,4.0279931640625,2.48927940621078,-1.6038868565067648,9.793875858622789,0.3071784973144531,1.1041183471679688,0.2099181562662124,jumping
1783087578170037000,4.038037109375,2.531277596245706,-1.153528376463801,8.54335265043676,0.1865660399198532,1.7452067136764526,0.1978479176759719,jumping
1783087578180081200,4.0480810546875,2.3188658486649394,-1.5073556967735289,7.375548057469725,0.0524725280702114,2.318321466445923,0.1520222127437591,jumping
1783087578190125800,4.058125732421875,1.8337196944877503,-1.9941462571568789,6.567500320991873,-0.0772332698106765,2.748828887939453,0.0375537015497684,jumping
1783087578200170000,4.068169921875,1.325794868399948,-2.514712830413878,6.480999849146604,-0.1963004916906356,2.9592983722686768,-0.0896914303302764,jumping
1783087578210214100,4.078214111328125,1.3104086448282002,-2.7529040391564368,7.244404141777753,-0.2164856493473053,2.854121208190918,-0.1812359988689422,jumping
1783087578220259000,4.088259033203125,1.3460492825299502,-2.9146956065684555,8.118969884780048,-0.1615164279937744,2.4711496829986572,-0.2721991837024688,jumping
1783087578230303000,4.098302978515625,1.316880763451755,-3.446453289794922,9.053260320904853,-0.1014746576547622,1.9188222885131836,-0.3383837938308716,jumping
1783087578240347100,4.10834716796875,1.1036992736075073,-3.823552910751104,9.578319967797398,0.007147445809096,1.3681514263153076,-0.4003145396709442,jumping
1783087578250392000,4.11839208984375,0.7201757570836692,-3.6545489277422423,9.735650464147328,0.0614884495735168,0.9252263307571412,-0.3605146706104278,jumping
1783087578260436000,4.12843603515625,0.6937265799667686,-3.193837542119622,9.177609754151105,-0.022989360615611,0.643379807472229,-0.2724722623825073,jumping
1783087578270480100,4.138480224609375,0.7135785507757216,-3.51096755528152,9.129206080988048,-0.0250450540333986,0.4650236666202545,-0.2006119191646576,jumping
1783087578280525000,4.148525146484375,0.7767954699281603,-2.8242674398854373,9.010169951719044,0.054665919393301,0.4341724812984466,-0.1372494399547577,jumping
1783087578290569000,4.15856884765625,1.397693252788484,-1.704905975309014,9.11337196751833,0.0527335293591022,0.3866683542728424,-0.0262028109282255,jumping
1783087578300613000,4.168613037109375,1.682378793941438,-0.901570800436288,9.339524655681847,-0.1233177185058593,0.3404823541641235,0.1253513842821121,jumping
1783087578310658000,4.178657958984375,1.902572573700547,-0.1557296370245516,9.233183172813057,-0.3531588912010193,0.2697496116161346,0.2827567458152771,jumping
1783087578320702000,4.188701904296875,1.8858932415783405,0.027861235871911,8.749491309097408,-0.4290999472141266,0.2520793974399566,0.3986547589302063,jumping
1783087578330746000,4.19874609375,1.492569923312962,-0.2783075305536389,8.333505200386046,-0.3190235197544098,0.2657105028629303,0.4780968427658081,jumping
1783087578340791000,4.208791015625,1.0582403486594558,-0.9262610050566494,8.75722862535119,-0.1547948122024536,0.1508335024118423,0.452809602022171,jumping
1783087578350835200,4.218835205078125,0.3447563442993909,-1.5329089479640126,9.140501381984352,-0.1290505677461624,-0.0388133898377418,0.3603414297103882,jumping
1783087578360878800,4.22887890625,-0.1765751489154994,-0.96838559795022,8.526709558671712,-0.2466048300266266,-0.2064636051654815,0.3247171342372894,jumping
1783087578370924000,4.238924072265625,0.1854895461246371,0.5798986138001084,8.473048695632816,-0.2858539521694183,-0.4577637314796448,0.3925800621509552,jumping
1783087578380968200,4.24896826171875,0.0583046702567487,2.0567273626238105,7.736452330428361,-0.269424706697464,-0.9099964499473572,0.5861733555793762,jumping
1783087578391011800,4.25901171875,1.004568379704654,3.0536797143667935,6.382630660331249,-0.2070974260568618,-1.4795610904693604,0.8483919501304626,jumping
1783087578401057000,4.26905712890625,4.030381889763475,2.7112688372150062,4.695049913832545,-0.1228099837899208,-1.999998927116394,0.8473799228668213,jumping
1783087578411101200,4.27910107421875,3.664690382528305,2.2152491145849225,1.314314420095086,-0.2065916955471038,-2.040529489517212,0.919283390045166,jumping
1783087578421145000,4.28914501953125,0.5385882598988712,3.5093586587801573,-1.9167197569966312,-0.3876110017299652,-1.088584303855896,1.3084975481033323,jumping
1783087578431190000,4.29918994140625,-7.113425061258673,6.1560699758887285,-10.44623502073884,-0.5057886242866516,1.1775106191635132,1.792052984237671,jumping
1783087578441234200,4.309234130859375,-7.682483424353599,6.6617316793501375,-16.357024414145947,-0.6278944611549377,3.645270824432373,1.5265573263168335,jumping
1783087578451278000,4.319278076171875,-4.8116342660352585,1.4418720017328857,-23.78184357526302,-1.1968456506729126,6.05192756652832,0.8211196064949036,jumping
1783087578461323000,4.329322998046875,-0.2279417635373771,-1.5292852045089005,-26.48366273934841,-1.5748366117477417,6.6672773361206055,0.5732520222663879,jumping
1783087578471367200,4.3393671875,4.99728280211389,-3.266528099799156,-21.832626739287377,-1.001433253288269,6.190876007080078,0.1822578907012939,jumping
1783087578481411000,4.3494111328125,3.3426433712303636,-0.5784793946519494,-16.835642627859116,0.0269484557211399,4.644921779632568,0.1715562045574188,jumping
1783087578492085000,4.3600849609375,-2.47607505672276,2.787300229755044,-12.103351070868968,0.6575868725776672,2.9635400772094727,0.1782356798648834,jumping
1783087578502129200,4.370129150390625,-2.934485179665685,2.858022409971058,-9.273377820557355,0.5706338882446289,1.066576600074768,-0.2032570093870163,jumping
1783087578512174000,4.380174072265625,-2.0063934520505367,1.5725985687956212,-7.769899842000007,0.3764468431472778,-1.250351071357727,-0.7880957126617432,jumping
1783087578522218000,4.390218017578125,-2.296138468550146,-2.347191779439151,-9.10861512838006,0.2795909941196441,-3.4745922088623047,-1.6603739261627195,jumping
1783087578532262100,4.40026220703125,-3.184356012547016,-5.250721556609869,-10.749348198986052,0.4203380048274994,-5.155065536499023,-2.373720407485962,jumping
1783087578542307000,4.41030712890625,-1.7541386466421185,-5.181791228246689,-15.12622472808361,0.4984244704246521,-5.66254997253418,-2.6691300868988037,jumping
1783087578552351000,4.42035107421875,1.145362897925824,-0.8070318374335765,-23.620139101612565,0.2760452330112457,-4.59153413772583,-2.470895767211914,jumping
1783087578562395100,4.43039501953125,4.275971392063796,1.7695640331804752,-29.722645829617974,0.0330933667719364,-2.2283084392547607,-2.183363199234009,jumping
1783087578572440000,4.440440185546875,5.119613881275058,4.532289209127426,-27.965397672653197,-0.0552735105156898,-0.0192000847309827,-1.677588701248169,jumping
1783087578582484000,4.45048388671875,6.389751890513301,8.493597562664746,-23.85868482288122,-0.1922606527805328,0.9619655013084412,-0.6133134961128235,jumping
1783087578592528100,4.460528076171875,4.670029454344511,7.566036142534017,-19.047054940760137,-0.1827475726604461,1.4602046012878418,0.3855170607566833,jumping
1783087578602573000,4.470572998046875,-0.0147350296540185,4.451414468209445,-16.434384717202185,-0.0818399935960769,1.800846815109253,0.9264383912086488,jumping
1783087578612617000,4.480616943359375,-3.269678380523622,1.2925640683189037,-12.820195856899025,0.0409538336098194,1.9691181182861328,0.8190094232559204,jumping
1783087578622661000,4.4906611328125,-3.635032910889387,0.3883335471540689,-8.471833474624157,0.070800133049488,1.8405890464782717,0.3623837232589721,jumping
1783087578632706000,4.5007060546875,-2.296136714984476,1.870598641812801,-5.216047718113661,-0.0938420742750167,1.4608867168426514,-0.0642903745174408,jumping
1783087578642750000,4.51075,-1.148441501653567,3.2487256088659167,-3.095974549260735,-0.3516981303691864,0.9811882376670836,-0.344692200422287,jumping
1783087578652794000,4.520794189453125,-0.5648535683488473,4.247008624690771,-1.1784154188305138,-0.4913604259490967,0.419228732585907,-0.3765819668769836,jumping
1783087578662839300,4.53083935546875,0.0302274535465985,4.8452545038253065,0.7185971826553345,-0.4635277688503265,-0.2114450484514236,-0.292359709739685,jumping
1783087578672883000,4.540883056640625,0.34900085000135,4.712001633155346,2.384363572230935,-0.393302857875824,-0.7196047306060791,-0.1754639744758606,jumping
1783087578682927000,4.550927001953125,0.4348311675000935,3.6639623605147,3.7347926772803066,-0.3793084621429443,-0.9751949310302734,-0.0841093510389328,jumping
1783087578692972000,4.560971923828125,0.4207738179119303,1.7535525173172353,5.3084068528592585,-0.4182747602462768,-1.1546437740325928,-0.0805937126278877,jumping
1783087578703016000,4.571015869140625,0.3404917091248556,-0.4011436366274952,6.909271438935399,-0.4939228892326355,-1.4022138118743896,-0.1849198788404464,jumping
1783087578713060000,4.58106005859375,0.4791215601254254,-1.6394859931543468,8.327554767549037,-0.5186871290206909,-1.6472800970077517,-0.2976272702217102,jumping
1783087578723105000,4.59110498046875,0.7713695724219083,-2.511324357019365,9.734811675235628,-0.4611964225769043,-1.812291145324707,-0.4224539399147033,jumping
1783087578733149000,4.60114892578125,0.7158616202116013,-2.599436063453555,11.01769167714715,-0.3787707984447479,-1.9112906455993652,-0.4709189534187317,jumping
1783087578743193000,4.611193115234375,0.5312457151163369,-2.715399653409422,12.135371179986,-0.2187606990337371,-1.8669513463974,-0.4011246860027313,jumping
1783087578753238000,4.621238037109375,0.5901514930713921,-2.86270939874351,13.393715875577923,-0.0221685580909252,-1.6580803394317627,-0.3495312631130218,jumping
1783087578763282200,4.6312822265625,0.9092693190496416,-2.49530348880589,14.282535184860228,0.1081943586468696,-1.378649353981018,-0.3161818385124206,jumping
1783087578773326000,4.641326171875,0.943940161871165,-2.0687974473848936,14.353110357820986,0.1282170712947845,-1.0863511562347412,-0.2499689906835556,jumping
1783087578783371000,4.65137109375,1.1095615897696465,-1.5619465341389178,13.95897192378044,0.0581832937896251,-0.9498218894004822,-0.171263501048088,jumping
1783087578793415200,4.661415283203125,1.254457040503621,-1.5705597564443945,13.06928869114518,-0.0796281024813652,-1.0718705654144287,-0.1053641214966774,jumping
1783087578803459000,4.671458984375,1.2159648127630351,-2.082144712474942,11.392841333079335,-0.1443205624818802,-1.170183539390564,-0.0928964987397193,jumping
1783087578813504000,4.68150390625,0.8479992231160401,-2.332188271574676,9.219054694217444,-0.0876714065670967,-1.0967453718185425,-0.0946174338459968,jumping
1783087578823548200,4.691548095703125,0.8096402663663029,-2.467907824619114,7.370321262732148,0.095794141292572,-0.7192451357841492,-0.0825031697750091,jumping
1783087578833592000,4.701592041015625,1.1670078896313905,-2.4634406160771847,6.583309300020336,0.28766530752182,-0.0985411405563354,-0.0577030181884765,jumping
1783087578843637000,4.711636962890625,1.3837322397142648,-2.424223873454332,6.7938535001635545,0.3958525955677032,0.5781468152999878,-0.0712018087506294,jumping
1783087578853681200,4.72168115234375,1.2104032331131398,-2.666859494385123,7.3909484556972975,0.4377627670764923,1.183635950088501,-0.0826275646686554,jumping
1783087578863725000,4.73172509765625,0.8486610480256378,-3.3415266421601175,7.959497700226306,0.4445205330848694,1.6691739559173584,-0.1157663464546203,jumping
1783087578873770000,4.74177001953125,0.5523772774070501,-3.7791394762679937,8.830323087656497,0.3715065121650696,1.9708352088928225,-0.165029764175415,jumping
1783087578883814100,4.751814208984375,0.7534178822763263,-4.297037853229045,9.954798241984845,0.2197342067956924,1.9267690181732176,-0.2322126775979995,jumping
1783087578893859000,4.761859130859375,0.8445026862371713,-4.851893795709311,10.362249746584892,0.0614473670721054,1.609798550605774,-0.3375643789768219,jumping
1783087578903903000,4.771903076171875,0.8624933201536535,-5.329025277996063,9.76677508572936,-0.0776796638965606,1.2416287660598757,-0.4537026584148407,jumping
1783087578913947100,4.781947021484375,0.7949824301343411,-5.1959074318826195,8.941572800832986,-0.2098643183708191,0.9129709005355836,-0.5529959201812744,jumping
1783087578923992000,4.791991943359375,0.6683075496152043,-4.811179215744137,8.441684420076012,-0.2898577749729156,0.6211748719215393,-0.6062178015708923,jumping
1783087578934036000,4.802035888671875,0.7156538226798176,-4.285143709556758,8.115097427260876,-0.3104450702667236,0.369099497795105,-0.6166054606437683,jumping
1783087578944080100,4.812080078125,0.8632300369303673,-3.688230540330707,8.06370918532908,-0.2467193007469177,0.1568300276994705,-0.5878158211708069,jumping
1783087578954125000,4.822125,1.0005428505156189,-3.242851456135511,8.123746597662567,-0.1305945664644241,-0.0193817429244518,-0.5370668768882751,jumping
1783087578964169000,4.8321689453125,1.4532261933095751,-2.804982016918063,8.155881273069978,0.002559351734817,-0.1356561779975891,-0.4523154497146606,jumping
1783087578974213000,4.842213134765625,1.844050826627016,-2.204876773652434,8.202674003905058,0.1660460084676742,-0.174684539437294,-0.3317871689796448,jumping
1783087578984258600,4.852258544921875,1.9943454329907893,-1.4732593659043312,8.358663607040047,0.3596483767032623,-0.1789490878582,-0.1992530226707458,jumping
1783087578994302700,4.862302734375,2.2532526820257304,-1.143979480743408,8.846400946754217,0.5050274133682251,-0.191266730427742,-0.0556250251829624,jumping
1783087579004346600,4.8723466796875,2.308806080812961,-0.8996785569489002,9.533364973783492,0.5448935627937317,-0.281881183385849,0.09163698554039,jumping
1783087579014391600,4.8823916015625,1.590001977408677,-0.5241214892596006,9.726697926884889,0.4985414445400238,-0.4882652461528778,0.2902914881706238,jumping
1783087579024435700,4.892435791015625,0.4416722655665129,0.1614709571555256,8.865228396821022,0.4217445254325866,-0.7060251235961914,0.5759702324867249,jumping
1783087579034479600,4.902479736328125,0.9392536845553666,1.6478271205201744,8.187644192555545,0.4090394079685211,-1.0188379287719729,0.9020596742630004,jumping
1783087579044524500,4.912524658203125,1.7296498098127544,3.7242192608177658,7.689220039132237,0.3874391317367553,-1.4610271453857422,1.2713557481765747,jumping
1783087579054568700,4.922568603515625,2.2381959826692936,5.0940410486012695,6.229497615671158,0.3085906505584717,-1.848820686340332,1.591113567352295,jumping
1783087579064612600,4.932612548828125,2.2997934839263556,4.373270905821025,4.196405980178714,0.2618109583854675,-2.0914037227630615,1.5542705059051514,jumping
1783087579074657800,4.94265771484375,-1.6789790685005486,4.371090346911549,0.7333791567236184,0.2405022084712982,-1.8908720016479492,1.5784823894500732,jumping
1783087579084701700,4.95270166015625,-6.145087978625297,5.200377855294943,-4.546384954497218,0.3291447460651397,-0.7577686905860901,1.7183506488800049,jumping
1783087579094745600,4.96274560546875,-5.887690841892361,6.098724871379137,-8.844835597133637,0.6931822896003723,0.4995512068271637,1.6607491970062256,jumping
1783087579104790800,4.972790771484375,-2.5833883072331547,6.775223033973575,-13.077171553349494,0.928962469100952,1.4061598777770996,1.5044556856155396,jumping
1783087579114834700,4.982834716796875,-2.5761659547641873,1.3327829737216232,-25.918037273311615,0.5564493536949158,3.1244688034057617,1.099082350730896,jumping
1783087579124878600,4.992878662109375,-1.5400141037940978,-3.093677670495212,-30.969891623568532,-0.4082598984241485,4.348862171173096,0.7344666719436646,jumping
1783087579134923800,5.002923828125,2.784074545706809,-7.164472526928782,-21.8607024946928,-0.6557157635688782,3.7539641857147217,0.1830626279115677,jumping
1783087579144967700,5.0129677734375,2.8238492144733667,-2.991840513308346,-12.044499068927763,0.0530849397182464,1.5645781755447388,0.0640558004379272,jumping
1783087579155011600,5.023011474609375,-0.1766957430878654,-1.3648419535443186,-10.181771598881484,0.8935908675193787,-0.2900424003601074,-0.2110761702060699,jumping
1783087579165056800,5.033056884765625,-3.0662033881142734,-0.8333519813433289,-10.782672960960864,1.13756000995636,-1.3226971626281738,-0.5945795178413391,jumping
1783087579175100700,5.0431005859375,-3.67536725936532,1.838509851373732,-8.166710710120201,0.8286913633346558,-1.856727600097656,-0.9031200408935548,jumping
1783087579185144600,5.05314453125,-4.662777583520114,2.156568377557397,-5.702971987879276,0.7085424661636353,-2.493614673614502,-1.0600298643112185,jumping
1783087579195189800,5.063189697265625,-5.251605353707075,-1.3637570809170605,-8.879493069016933,0.1696968227624893,-3.008697986602783,-1.371117115020752,jumping
1783087579205233700,5.073233642578125,-5.004150934317708,-2.982296147632599,-12.102577163887023,-0.4286229908466339,-3.1623175144195557,-1.4765253067016602,jumping
1783087579215277600,5.083277587890625,-3.512462177753448,-0.7752800238639116,-16.713360648536682,-0.8086400628089905,-2.7895030975341797,-1.3104939460754397,jumping
1783087579225322800,5.09332275390625,-1.680854214722663,2.416905951656401,-21.842437354683874,-0.7189061045646667,-1.6694759130477903,-0.9101447463035583,jumping
1783087579235366700,5.10336669921875,0.2918094016835093,6.30220863161683,-22.37106024701595,-0.2854649126529693,-0.3558245897293091,-0.2813212871551513,jumping
1783087579245410600,5.11341064453125,1.102259523127973,9.046199880999326,-18.0877551510632,0.2169928103685379,0.3700501322746277,0.5712193846702576,jumping
1783087579255455700,5.123455810546875,-1.873778587023169,8.655242415082455,-14.105906698322295,0.4624153673648834,0.8229854106903076,1.2650202512741089,jumping
1783087579265499600,5.133499755859375,-6.5764797462612385,5.455771250990033,-11.719217313492296,0.3927136659622192,1.2895184755325315,1.4353961944580078,jumping
1783087579275543800,5.143543701171875,-8.199943117636442,2.052878870502114,-9.747352007856964,0.1771145313978195,1.5820987224578855,1.0745782852172852,jumping
1783087579285588700,5.153588623046875,-5.767731752559542,1.04685561581403,-9.305081703332066,0.0436973236501216,1.4020278453826904,0.5975382924079895,jumping
1783087579295632600,5.163632568359375,-3.0276407254859805,1.1888622863039373,-11.669503726774453,-0.0715424418449401,1.0974684953689575,0.1777383685111999,jumping
1783087579305676800,5.1736767578125,-0.5478313776057213,0.9939145914822816,-12.764389214003083,-0.1842034012079239,0.8106977343559265,-0.2061614990234375,jumping
1783087579315721700,5.1837216796875,0.5279364444378764,0.4145075605913996,-12.185962718582152,-0.186486005783081,0.660927951335907,-0.4265514016151428,jumping
1783087579325765600,5.193765625,1.1187653983794152,0.1463522984787821,-10.15061073694229,-0.1750476211309433,0.5762466788291931,-0.5590924024581909,jumping
1783087579335809800,5.203809814453125,1.3384902454525232,0.6815759042501449,-7.4895549603998655,-0.2700590789318084,0.5052278637886047,-0.7502490878105164,jumping
1783087579345854700,5.213854736328125,0.6697587713368237,1.4304162494778632,-3.986726287910342,-0.4067128896713257,0.3775665760040283,-0.8497717380523682,jumping
1783087579355898600,5.223898681640625,0.3080120562046766,1.564514631061256,0.2819341966181993,-0.4237624704837799,0.1135293468832969,-0.8911404609680176,jumping
1783087579365942800,5.23394287109375,0.7951634857896714,1.5447165823966265,2.8725656068474055,-0.3881057798862457,-0.115481823682785,-0.9166244268417358,jumping
1783087579375987700,5.24398779296875,1.4425570613875984,1.1202706883758309,5.676082227388024,-0.2755451500415802,-0.3667039275169372,-0.9302608370780944,jumping
1783087579386031600,5.254031494140625,0.8913008969649672,0.4122045443460345,8.199307157820463,0.0174699239432811,-0.4035625457763672,-0.7807902097702026,jumping
1783087579396075800,5.26407568359375,1.1964992839884012,-0.8207832994103431,9.698025959151982,0.0247331634163856,-0.5470627546310425,-0.7371508479118347,jumping
1783087579406120700,5.27412060546875,1.1220148286294191,-1.3093614738628268,11.990379356205462,-0.1963389664888382,-0.9382495284080504,-0.7447923421859741,jumping
1783087579416164600,5.28416455078125,0.3932586555313319,-0.762076843419671,14.479812491673233,-0.466389924287796,-1.4463130235671997,-0.7107222676277161,jumping
1783087579426208800,5.294208740234375,1.0905132634937762,-0.1625923624008894,15.80846231111288,-0.6936314105987549,-2.0302770137786865,-0.6647754907608032,jumping
1783087579436253700,5.304253662109375,1.6006084193579853,-0.4797735212281346,16.1640117790401,-0.744495689868927,-2.428022861480713,-0.7071890234947205,jumping
1783087579446297600,5.314297607421875,2.163157254428417,-1.0425994196742772,15.735982765835525,-0.6238909959793091,-2.4845831394195557,-0.7699043154716492,jumping
1783087579456341800,5.324341796875,2.769723656532168,-1.9208841831997037,14.844611433982848,-0.4324821233749389,-2.324603796005249,-0.7937753200531006,jumping
1783087579466386700,5.33438671875,3.435727020858228,-2.481319094856083,13.03745562903285,-0.1944661140441894,-1.8762913942337036,-0.7429006099700928,jumping
1783087579476430600,5.3444306640625,4.181310994638502,-2.3302511660322547,10.79685813817978,0.0781688690185546,-1.1059448719024658,-0.6027613282203674,jumping
1783087579486474800,5.354474853515625,4.208636223937571,-1.6720023613557218,8.78048382873237,0.3739102184772491,-0.1610803753137588,-0.3973542153835296,jumping
1783087579496519700,5.364519775390625,4.044726056936383,-1.6301342274412511,7.973745421287417,0.5281871557235718,0.7580659985542297,-0.168258711695671,jumping
1783087579506563600,5.3745634765625,3.428736431318521,-2.158198316846788,7.580217228099704,0.4190925061702728,1.5207089185714722,0.0001222935970872,jumping
1783087579516607700,5.384607666015625,2.450061056152731,-2.7493217967554924,6.9910980737507336,0.1424627900123596,2.1570420265197754,0.0722739845514297,jumping
1783087579526652700,5.394652587890625,2.035452519404888,-3.1304265616998075,6.760391960066556,-0.1378193348646164,2.581500768661499,0.079999603331089,jumping
1783087579536696600,5.404696533203125,1.5731630708105862,-3.253010738839209,6.7867720174700015,-0.2451362013816833,2.82080340385437,0.0580596774816513,jumping
1783087579546740700,5.41474072265625,1.369665574308485,-3.5739383907184004,7.458352597406506,-0.188214898109436,2.8007278442382812,-0.0164444558322429,jumping
1783087579556785700,5.42478564453125,1.1837442126378417,-4.041952208308875,8.599196702733636,-0.0553489997982978,2.4916422367095947,-0.1296799331903457,jumping
1783087579566829600,5.43482958984375,0.8606747264243662,-4.1885052900567645,9.123345664522052,0.0461771450936794,2.1178104877471924,-0.2234128713607788,jumping
1783087579576873700,5.444873779296875,0.9296090003103016,-3.8620965764179824,9.499932075259087,0.0901155769824981,1.7090237140655518,-0.2101327627897262,jumping
1783087579586918700,5.454918701171875,0.9016267684072256,-3.7610347875177856,9.56399450532496,0.1122798174619674,1.3872891664505005,-0.1803877651691436,jumping
1783087579596962800,5.464962890625,1.112759216767177,-3.7714945144727823,9.51820598309636,0.0612834766507148,1.1213994026184082,-0.2108354121446609,jumping
1783087579607006700,5.4750068359375,1.1086318346388635,-3.1513743649214505,9.276299845483898,-0.046801920980215,0.9132394194602966,-0.2218545973300933,jumping
1783087579617051600,5.4850517578125,0.8952706773787736,-2.4352839043900367,8.899819233208895,-0.1218950748443603,0.7757441401481628,-0.1946719884872436,jumping
1783087579627095800,5.495095703125,0.5324593286897987,-1.8603525576084852,8.871034452751278,-0.1545081287622451,0.6901224851608276,-0.1580840200185775,jumping
1783087579637139700,5.5051396484375,0.2504139998473227,-1.6203130906507373,9.381568730685114,-0.1794268041849136,0.6120151877403259,-0.1046788543462753,jumping
1783087579647184600,5.5151845703125,0.0910916355604305,-1.8296911696240303,9.933119494140149,-0.1947826892137527,0.4820674657821655,-0.0498242378234863,jumping
1783087579657228800,5.525228759765625,-0.0886582891999743,-1.9834312402665617,10.070040239667891,-0.160953089594841,0.3391872644424438,-0.0425937548279762,jumping
1783087579667272400,5.5352724609375,-0.2725143523712642,-1.7886393205285072,9.928402402490375,-0.0249399077147245,0.2267023622989654,-0.0703317150473594,jumping
1783087579677317600,5.545317626953125,-0.2749282451125793,-1.4285337967321277,9.989891767197848,0.1535536795854568,0.1048691347241401,-0.1307572424411773,jumping
1783087579687361800,5.55536181640625,-0.1420648486842401,-1.1082494111925365,10.285201578217745,0.2385586202144622,-0.1419142186641693,-0.1986297219991684,jumping
1783087579697405700,5.56540576171875,-0.7300077075291425,-0.5700768924877048,9.499937335956096,0.2041950523853302,-0.3803129196166992,-0.2376114875078201,jumping
1783087579707450600,5.57545068359375,-0.7716071805700659,0.400040059299767,8.030447551718353,0.2218135893344879,-0.5225759744644165,-0.2414243519306183,jumping
1783087579717494800,5.585494873046875,0.1160495146736502,1.703890368525684,6.8999716956704855,0.2978290021419525,-0.6796103119850159,-0.1916738301515579,jumping
1783087579727538700,5.59553857421875,-0.981250632481277,3.9481320611000057,4.13223716712892,0.2889857888221741,-0.6250215172767639,0.1397000849246978,jumping
1783087579737583600,5.60558349609375,-0.6327974794905632,6.546433567565679,1.2123223646074532,0.2455935776233673,-0.5213789939880371,0.803141176700592,jumping
1783087579747627800,5.615627685546875,2.9945453883528708,7.546598451614379,-1.0088239913225174,0.3432038724422455,-0.6246019005775452,1.3048640489578247,jumping
1783087579757671700,5.625671630859375,3.7673476239264008,6.7713482383668415,-7.125876546552777,0.4448495209217071,-0.1665797084569931,1.5488215684890747,jumping
1783087579767716600,5.635716552734375,-0.9278320537656544,4.554091291090846,-16.402416046011446,0.2192661315202713,1.4088032245635986,1.8022897243499756,jumping
1783087579777760800,5.6457607421875,-5.244110029515624,0.6362640596225857,-24.157770645308492,0.0361959189176559,3.971301555633545,1.9384666681289673,jumping
1783087579787804700,5.6558046875,-1.157004528141767,-3.267031373146176,-23.683442822265626,0.0199358873069286,6.1472272872924805,1.628930926322937,jumping
1783087579797849600,5.665849609375,4.381069304612279,-5.4949891626566645,-14.103238940417766,-0.496117353439331,5.990466117858887,0.9669638872146606,jumping
1783087579807893800,5.675893798828125,5.5474236987709995,-5.00399720506072,-9.948956530219316,-0.9623573422431946,4.241862773895264,0.4560864269733429,jumping
1783087579817937700,5.685937744140625,3.164271840417385,-3.393841059026122,-13.049843985962866,-0.8155511021614075,2.737367630004883,0.3501573204994201,jumping
1783087579827982600,5.695982666015625,0.7069321715638041,-2.8190120035752653,-11.627494138562678,-0.1330092549324035,1.226148247718811,0.1153042465448379,jumping
1783087579838026800,5.70602685546875,-1.1554586138740182,-1.894682112711668,-8.949819235652685,0.657300591468811,-0.3383762240409851,-0.3707037568092346,jumping
1783087579848070700,5.716070556640625,-2.8420144012391564,0.0094978961855173,-7.822395168390869,1.1493580341339111,-1.8379509449005127,-0.6689893007278442,jumping
1783087579858115600,5.726115478515625,-3.048132017111778,0.6954857716590166,-5.942783199039101,1.3881326913833618,-3.217716693878174,-0.8444284796714783,jumping
1783087579868159700,5.73615966796875,-2.380020720721036,0.0230006440982222,-3.811329973515868,1.3738672733306885,-4.515580654144287,-1.051945447921753,jumping
1783087579878203600,5.74620361328125,-2.2683964751437307,-1.9976643482804295,-3.839585177141428,1.1400665044784546,-5.466421127319336,-1.241140604019165,jumping
1783087579888248600,5.75624853515625,-1.952456548549235,-4.403644124513864,-6.030542731034755,0.6824713945388794,-5.7786865234375,-1.4785456657409668,jumping
1783087579898292700,5.766292724609375,-1.3665595711171623,-4.648218020030856,-7.312827689662576,0.5243584513664246,-5.678554058074951,-1.5435898303985596,jumping
1783087579908336600,5.776336669921875,-1.18423228841573,-2.6757737454637884,-11.609907043945787,0.3913069069385528,-4.72767448425293,-1.5126417875289917,jumping
1783087579918381600,5.786381591796875,-0.3179690943345427,0.2666020413212478,-13.02415775604248,0.113235630095005,-3.7436273097991943,-1.209040641784668,jumping
1783087579928425700,5.79642578125,1.4442645959578453,3.712977151313424,-13.946542650318143,-0.1613009572029113,-2.7066149711608887,-0.6620667576789856,jumping
1783087579938469600,5.8064697265625,2.1396024835787713,6.62550885784626,-14.796838459938764,-0.2859027981758117,-1.6251990795135498,-0.0416636876761913,jumping
1783087579948514800,5.816514892578125,0.5783477310962974,7.470946121519804,-15.311057563865184,-0.2946427166461944,-0.6703494787216187,0.5192161798477173,jumping
1783087579958558700,5.826558837890625,-2.55468506757915,6.091820498818159,-16.60457644869089,-0.2740096151828766,0.0509008429944515,0.8693989515304565,jumping
1783087579968602600,5.8366025390625,-7.300458621954918,2.6190228074550626,-17.950110767436026,-0.1073336973786354,0.7403997182846069,0.8545233011245728,jumping
1783087579978647600,5.8466474609375,-9.317970410999656,-1.784870323383808,-16.019825426423548,0.1507567167282104,1.1164652109146118,0.2764461040496826,jumping
1783087579988691500,5.85669140625,-7.878029377329349,-2.9483108759224415,-13.014966733849048,0.2639545500278473,0.9219768643379213,-0.4394073486328125,jumping
1783087579998735600,5.866735595703125,-5.752142553761601,-0.7847349576905369,-12.382319987940788,0.1228621527552604,0.425265371799469,-0.9275938272476196,jumping
1783087580008780500,5.876780517578125,-3.9042987645924088,2.0039085033670068,-12.861831351101396,-0.126775175333023,0.1972158253192901,-1.1487916707992554,jumping
1783087580018824700,5.88682470703125,-2.1045690179899332,4.278493896278738,-11.492544400846958,-0.2664262652397156,0.2105372250080108,-1.128365159034729,jumping
1783087580028868400,5.896868408203125,-0.5873850240327417,5.777262381970882,-8.798198349121213,-0.2465210258960724,0.2626433074474334,-0.9339175820350648,jumping
1783087580038913500,5.90691357421875,0.725642132730782,6.700764297577738,-5.544061528861523,-0.1269935667514801,0.2569697201251983,-0.6594160199165344,jumping
1783087580048957700,5.916957763671875,2.3156156146973372,6.9682596344769,-1.9074960015773772,-0.0236725769937038,0.0098212724551558,-0.3071094155311584,jumping
1783087580059001300,5.92700146484375,4.109103544300794,6.086221948158741,0.3242699480444193,0.0132132694125175,-0.3604481518268585,0.0710522681474685,jumping
1783087580069046500,5.937046630859375,5.3227814151704305,4.72755663742274,1.6781763738155364,-0.0291028767824172,-0.6771600246429443,0.4097210466861725,jumping
1783087580079090700,5.947090576171875,5.32931052467823,3.727340607708692,3.68441273560822,-0.0914432182908058,-0.8647898435592651,0.6894475221633911,jumping
1783087580089134300,5.95713427734375,4.736083058227599,2.8843653502345084,6.329429816019535,-0.0696101486682891,-0.8583989143371582,0.943111538887024,jumping
1783087580099179500,5.967179443359375,4.0779993809849024,2.2655950078569354,10.311377637481687,0.0614312291145324,-0.8874505162239075,1.1408294439315796,jumping
1783087580109223700,5.9772236328125,2.900934792241454,1.6324553638651966,14.707522346150874,0.0868006870150566,-1.1501654386520386,1.2995022535324097,jumping
1783087580119267600,5.987267578125,1.5909835357919335,0.3230117646768689,17.653323285079,-0.1300850212574005,-1.620345115661621,1.3497968912124634,jumping
1783087580129312500,5.9973125,0.7503288302198052,-1.2627324091568588,19.179975218474866,-0.4910242259502411,-2.1805920600891113,1.2444227933883667,jumping
1783087580139356700,6.007356689453125,0.3759910751923918,-2.414064006228745,18.52353843165636,-0.8601610064506531,-2.7292020320892334,1.0520339012145996,jumping
1783087580149400600,6.017400634765625,0.4231017859354615,-2.55033067176193,15.4623528717041,-1.0057196617126465,-2.9779064655303955,0.8288660049438477,jumping
1783087580159445500,6.027445556640625,1.020052072301507,-2.191132033677399,12.63683484723568,-0.8475035429000854,-2.775705337524414,0.6539251208305359,jumping
1783087580169489700,6.03748974609375,1.992662009948492,-1.789433978037536,10.963898127639292,-0.5201390385627747,-2.2126476764678955,0.5445712208747864,jumping
1783087580179533600,6.047533447265625,2.4659192811504007,-1.343863755184412,9.89305402573347,-0.2573761343955993,-1.4983901977539062,0.4960154294967651,jumping
1783087580189578500,6.05757861328125,2.6880805615901946,-1.182020165324211,8.744682447510957,-0.1218833550810813,-0.6783100962638855,0.4852380752563476,jumping
1783087580199622700,6.06762255859375,2.9634950010508296,-1.6895795191004872,7.539777665683626,-0.0159097854048013,0.1401226967573166,0.4844753444194793,jumping
1783087580209666600,6.07766650390625,2.8233570470422507,-2.471353288897872,6.3344245555669065,0.1600713282823562,0.9119704961776732,0.4448637068271637,jumping
1783087580219711500,6.08771142578125,2.700632876910269,-3.4229096248611808,5.433413873231411,0.371408075094223,1.563981056213379,0.3669217526912689,jumping
1783087580229755600,6.097755615234375,3.1133959319218993,-4.075869967740774,5.367184035998583,0.5581124424934387,2.040163040161133,0.240614116191864,jumping
1783087580239799600,6.107799560546875,3.154694741515815,-4.271632486076653,6.189947695571184,0.691457986831665,2.3731744289398193,0.1080875098705291,jumping
1783087580249844500,6.117844482421875,3.078551997555792,-4.5913475472956895,7.004961179408431,0.6789469718933105,2.376636028289795,-0.0085953008383512,jumping
1783087580259888600,6.127888671875,3.157093327090144,-4.0697500235557555,7.012237307891249,0.5324249267578125,2.3932735919952393,-0.1968560218811035,jumping
1783087580269932500,6.1379326171875,2.395736760769039,-4.054869557549059,7.87888628641963,0.3087427318096161,2.2773687839508057,-0.271848976612091,jumping
1783087580279977500,6.1479775390625,1.8782111626431344,-3.950955594088137,8.709677769625186,0.2846057116985321,2.080676555633545,-0.323189914226532,jumping
1783087580290021600,6.158021728515625,1.4511149002440271,-3.772523565259576,8.939320053470134,0.3589927554130554,1.88266122341156,-0.438925176858902,jumping
1783087580300065500,6.1680654296875,1.2725902246959506,-3.443367598739266,9.26933877429962,0.4194952249526977,1.6735804080963137,-0.5629871487617493,jumping
1783087580310110500,6.1781103515625,1.2087833768263458,-2.685453720217943,9.439863683265449,0.3510028421878814,1.4840304851531982,-0.7194677591323853,jumping
1783087580320154600,6.188154541015625,1.0610874086536466,-2.027367704887688,9.743526896610856,0.0686563923954963,1.2827166318893433,-0.8452666997909546,jumping
1783087580330198500,6.198198486328125,1.0154806727327406,-1.698930992552638,10.095373418366908,-0.2501021027565002,1.0818008184432983,-0.8521636724472046,jumping
1783087580340243500,6.208243408203125,0.9711570354249328,-1.530780119241774,10.204316608166694,-0.4294401407241821,0.8859785795211792,-0.7985275983810425,jumping
1783087580350287400,6.218287353515625,0.8749348685756325,-1.3952280317187309,10.137075548064708,-0.4323838949203491,0.677762508392334,-0.7321876287460327,jumping
1783087580360331500,6.22833154296875,0.9968014720302074,-1.342024557058513,9.855838686060904,-0.3297608494758606,0.4059989154338836,-0.6844936013221741,jumping
1783087580370376700,6.238376708984375,0.8082816913641989,-1.315467097261548,9.640074120920897,-0.1596767306327819,0.0409305542707443,-0.6763045191764832,jumping
1783087580380420400,6.24842041015625,0.0950900210142135,-1.216912615007162,9.210878986546396,-0.0303216706961393,-0.4013725519180298,-0.6936113238334656,jumping
1783087580390464500,6.258464599609375,-1.0073767881888895,-0.9384221291020513,7.686037317442893,-0.0312035046517848,-0.7971519231796265,-0.722926914691925,jumping
1783087580400509700,6.268509765625,-0.9720220547564328,-0.390496862667799,6.618143882036208,-0.0690518170595169,-1.188948631286621,-0.7450932264328003,jumping
1783087580410553300,6.27855322265625,-0.2594669287443161,0.3508104567065835,5.366134234684705,-0.0690475702285766,-1.556767463684082,-0.7365446090698242,jumping
1783087580420597500,6.288597412109375,0.1676576829664409,1.9221897128403185,3.04973243804574,-0.0631196424365043,-1.7385358810424805,-0.5955935716629028,jumping
1783087580430642700,6.298642578125,2.456393620175123,3.83938439387232,1.0552309377104043,-0.1219740286469459,-1.8282644748687744,-0.3047310709953308,jumping
1783087580440686600,6.3086865234375,3.510859126470983,4.654519750523567,-0.2871785270124674,-0.0815046355128288,-1.8985100984573364,-0.0267689526081085,jumping
1783087580450730500,6.31873046875,1.1867656062856315,3.910857976977527,-3.8501509948194026,-0.0832668915390968,-1.446780800819397,0.1703888177871704,jumping
1783087580460775700,6.328775634765625,-1.6769323651038108,2.039801362264156,-5.54982842182517,-0.1059580892324447,-0.7903425097465515,0.3562526702880859,jumping
1783087580470819600,6.338819580078125,-5.987349485996365,1.9700830983936783,-7.598480614542961,-0.0573277585208416,0.1658588647842407,0.629780650138855,jumping
1783087580480863500,6.348863525390625,-6.668916622418164,0.8302157291442155,-13.616923742461204,0.0933741331100463,1.8571139574050903,0.8511687517166138,jumping
1783087580490908700,6.35890869140625,-1.945324212451279,-2.4458234185829757,-15.60370195506811,-0.0093199182301759,3.174107313156128,0.5706776976585388,jumping
1783087580500952600,6.36895263671875,-1.241912908490002,-3.1585452794641253,-19.613854126751423,-0.8049437999725342,4.320385456085205,0.0236502774059772,jumping
1783087580510996500,6.37899658203125,1.5178050484649837,-2.3413404230624435,-17.54385168749094,-1.468550205230713,4.544206619262695,-0.1221638768911361,jumping
1783087580521041700,6.389041748046875,2.984071048350632,-3.1515251715689896,-10.615268229842185,-1.1059682369232178,3.5212149620056152,-0.0975685194134712,jumping
1783087580531085600,6.39908544921875,2.462447805647552,-1.6323218006134033,-7.257320321974157,-0.1172597706317901,2.0099849700927734,-0.0988990813493728,jumping
1783087580541129500,6.40912939453125,0.7068170207515359,-1.1537705146566033,-6.495657320052385,0.6998526453971863,0.5871272683143616,-0.0577657632529735,jumping
1783087580551174700,6.419174560546875,-1.3833449939623474,-1.7126383231267333,-5.282522470018267,1.22422456741333,-0.342473417520523,-0.006559760775417,jumping
1783087580561218600,6.429218505859375,-3.042209056803584,-2.3636326266303658,-2.986648497623205,1.4452033042907717,-0.9884771704673768,-0.2134085446596145,jumping
1783087580571262700,6.4392626953125,-4.749672899901866,-3.2078184289380904,-0.8311573939085006,1.3472635746002195,-1.5228737592697144,-0.5417519807815552,jumping
1783087580581307600,6.4493076171875,-4.498881152783334,-2.885542577320337,1.7985037119388578,1.0206724405288696,-2.231067419052124,-0.8059777617454529,jumping
1783087580591351600,6.4593515625,-2.8029703848347065,-1.6684344397410749,1.5220973388314247,0.6488176584243774,-2.855733871459961,-0.928361177444458,jumping
1783087580601395700,6.469395751953125,-1.2528116113841532,-0.2096566036537289,-3.424072531160712,-0.1167112067341804,-3.2263617515563965,-0.9001199007034302,jumping
1783087580611440600,6.479440673828125,-0.452833637984842,0.7661239268533885,-11.782754842901229,-0.9565168619155884,-2.6832127571105957,-0.6258585453033447,jumping
1783087580621484500,6.489484619140625,-0.025059914715588,0.5802908279880881,-19.955292067217822,-1.366655945777893,-1.520410656929016,-0.4129686653614044,jumping
1783087580631528700,6.49952880859375,1.2189143102183937,1.1572253312855958,-23.97018120429516,-1.138011813163757,-0.3296929597854614,-0.2425917088985443,jumping
1783087580641572400,6.509572265625,2.4685791480094195,0.7219803953528404,-22.619659744787217,-0.4464691579341888,0.2001618444919586,-0.1126813814043998,jumping
1783087580651617500,6.519617431640625,0.935599911288172,-1.3281661275759338,-17.97412994092703,0.3058743476867676,0.2295592278242111,-0.1617946773767471,jumping
1783087580661661700,6.52966162109375,-2.300030653683096,-2.351623039884865,-14.24310801435709,0.65550696849823,0.3992356061935425,-0.252794086933136,jumping
1783087580671705600,6.53970556640625,-4.295972269824147,-1.8718080176025629,-11.245020423352718,0.5317490696907043,0.8683320879936218,-0.2680762112140655,jumping
1783087580681750500,6.54975048828125,-3.8658340093806385,-0.3619339082673192,-8.254165706211328,0.1737190335988998,1.1814953088760376,-0.3593842685222626,jumping
1783087580691794700,6.559794677734375,-2.8751617608204483,2.016739343367517,-8.845999380216002,-0.4251115918159485,1.3641856908798218,-0.4326924085617065,jumping
1783087580701838600,6.569838623046875,-1.4677085999093948,3.97084015199244,-10.80908867419958,-1.019540548324585,1.348660588264465,-0.3305316865444183,jumping
1783087580711883500,6.579883544921875,-0.1100168103806674,5.032323135834932,-12.90878833258748,-1.218463659286499,1.097916603088379,-0.1371944695711136,jumping
1783087580721927700,6.589927734375,0.2588753925919532,4.400909146592021,-15.278084684067965,-0.8207803964614868,0.8284202814102173,-0.0817019268870353,jumping
1783087580731971600,6.5999716796875,-0.3438922017507255,2.5092244621306654,-16.292826375001667,-0.0682363063097,0.8525035381317139,-0.2202721238136291,jumping
1783087580742016500,6.6100166015625,-0.4712523611202835,1.1494117349252104,-14.236196627533436,0.4340912401676178,0.9388182163238524,-0.4242622554302215,jumping
1783087580752060700,6.620060791015625,0.0221911543462425,1.3218272799432278,-11.14966035322547,0.420314073562622,1.0744309425354004,-0.5287573337554932,jumping
1783087580762104600,6.6301044921875,0.7102094396688043,2.3463465607866643,-7.54911657191515,0.1410086452960968,1.2065138816833496,-0.4869254231452942,jumping
1783087580772149500,6.6401494140625,1.3703838055804372,3.1971672710642216,-3.920378377255797,-0.0758877471089363,1.186210870742798,-0.3364236354827881,jumping
1783087580782193700,6.650193603515625,1.9118962823629375,3.4923829740598795,-0.9678595282495022,-0.1953646093606948,1.0993343591690063,-0.1165988743305206,jumping
1783087580792237600,6.660237548828125,2.3133935547336937,2.6871941341444847,2.077199072766304,-0.2478737235069275,0.945434868335724,0.0937893092632293,jumping
1783087580802282500,6.670282470703125,1.968009068598598,1.1395967356145382,4.765646129581332,-0.295689970254898,0.7681735754013062,0.2214074581861496,jumping
1783087580812326700,6.68032666015625,1.4482494278103113,0.3649938803598284,7.183326865002512,-0.4364898204803467,0.4417863488197326,0.3794687688350677,jumping
1783087580822370600,6.69037060546875,1.0129263120748102,0.6124360247895121,9.735754509043693,-0.5841277241706848,-0.1145956739783287,0.590417742729187,jumping
1783087580832415500,6.70041552734375,0.2010121459597721,0.1979766872540116,12.082863578635454,-0.5845648646354675,-0.8803794384002686,0.7174963355064392,jumping
1783087580842459400,6.71045947265625,-1.307400695183873,-0.4891229488536715,13.7017904756248,-0.4589457213878631,-1.6763272285461426,0.748354971408844,jumping
1783087580852503600,6.720503662109375,-2.786550288170576,-0.6630868923574685,15.18402459062338,-0.2795003652572632,-2.3604235649108887,0.7426533102989197,jumping
1783087580862548500,6.730548583984375,-2.995736936224997,-0.5615826203867793,16.63374526003003,-0.1658504903316497,-2.927820205688477,0.7373091578483582,jumping
1783087580872592400,6.74059228515625,-1.6162679069131611,-0.3043161242961883,17.269299417817592,-0.1985876709222793,-3.308577060699463,0.6747203469276428,jumping
1783087580882636500,6.750636474609375,-0.0716262894488871,0.157423143069446,16.835510525912046,-0.3672935962677002,-3.4827752113342285,0.5974305868148804,jumping
1783087580892681500,6.760681396484375,0.7278755908712744,-0.1615916609257459,14.997460401004552,-0.4447576403617859,-3.374307155609131,0.5403430461883545,jumping
1783087580902725400,6.770725341796875,1.1869738422088325,-0.9108163292959331,12.696650141251087,-0.3353685736656189,-2.8957245349884033,0.5779677033424377,jumping
1783087580912769500,6.78076953125,1.6732780803799627,-1.6236130089789629,10.47049852437973,-0.151948794722557,-2.047312021255493,0.621060311794281,jumping
1783087580922814700,6.790814697265625,1.6347195094048976,-2.447208735461533,8.690563319310545,-0.039725050330162,-1.033903956413269,0.6258358955383301,jumping
1783087580932858400,6.8008583984375,1.2414490903705355,-2.962951980215311,7.3239306829571715,-0.0637619718909263,-0.0518643297255039,0.5962993502616882,jumping
1783087580942902500,6.810902587890625,0.8379556757465004,-3.3415017999798056,5.862777934432029,-0.1201083362102508,0.9035537242889404,0.500617265701294,jumping
1783087580952947700,6.82094775390625,0.7906573334768414,-3.5250635929122565,4.8019554603248835,-0.1201329752802848,1.6852015256881714,0.3619136810302734,jumping
1783087580962991400,6.830991455078125,1.1552056620262563,-3.477137474133074,4.686344629329443,0.0032582010608166,2.10159969329834,0.2370423227548599,jumping
1783087580973035500,6.841035400390625,1.8048340840041637,-3.5113682450368997,5.080135857367515,0.2165202349424362,2.1519508361816406,0.1170015335083007,jumping
1783087580983080200,6.851080078125,2.149204132399708,-3.790365803681314,5.672987768504023,0.2739529013633728,1.9594022035598757,-0.003881205804646,jumping
1783087580993124400,6.861124267578125,2.0917666734315454,-4.146322098843753,6.643966305556893,0.069328173995018,1.6844689846038818,-0.1132674440741539,jumping
1783087581003168000,6.87116796875,1.7649843041747808,-4.68538075273335,7.925371558740735,-0.1764922440052032,1.4540398120880127,-0.2816601991653442,jumping
1783087581013213200,6.881213134765625,1.1249227519653735,-4.754452827654779,9.33957609360814,-0.342797189950943,1.1522916555404663,-0.4448644816875458,jumping
1783087581023257300,6.89125732421875,0.847545487999171,-4.566362451381981,10.425229642111065,-0.3981906771659851,0.7424919009208679,-0.5212498307228088,jumping
1783087581033301000,6.901301025390625,0.9222627292007208,-4.102830455380678,10.69135193709135,-0.3359543085098266,0.2830385565757751,-0.5410100221633911,jumping
1783087581043346200,6.91134619140625,1.2223384394481778,-3.7316374281197784,10.29563529394865,-0.1772749125957489,-0.0498246327042579,-0.5324549078941345,jumping
1783087581053390300,6.921390380859375,1.647423508155346,-3.629153789722919,10.032745405018328,-0.014649917371571,-0.2580710649490356,-0.4771702587604522,jumping
1783087581063434200,6.931434326171875,1.675098719935864,-3.616281156407296,9.703636200249194,0.0776121020317077,-0.3670015335083008,-0.4104487597942352,jumping
1783087581073479200,6.941479248046875,1.7225651122488082,-3.474332645845413,9.328345090019702,0.0252466332167387,-0.4493137300014496,-0.3543790876865387,jumping
1783087581083523300,6.9515234375,1.7725285820744932,-3.237765823434293,8.886207471963763,-0.1248131766915321,-0.4944716393947601,-0.3090662062168121,jumping
1783087581093567200,6.961567138671875,2.007008076817542,-2.776898954989016,8.704732714438437,-0.1851057112216949,-0.5155675411224365,-0.2885497808456421,jumping
1783087581103612200,6.971612060546875,2.4030616968296465,-2.160884194929898,8.95857537356019,-0.1162150576710701,-0.5698041915893555,-0.2679821848869324,jumping
1783087581113656300,6.98165625,2.7513997720733285,-2.053252087728679,9.562685176292062,0.0405859388411045,-0.7228513956069946,-0.2471107691526413,jumping
1783087581123700200,6.9917001953125,1.5356978480301795,-1.9162240824341772,9.779951962688564,0.170831561088562,-0.9074382781982422,-0.2274286746978759,jumping
1783087581133745200,7.0017451171875,0.1302240243680775,-1.296820848980546,8.815390891462563,0.2030802369117736,-0.9925473928451538,-0.1387139856815338,jumping
1783087581143789300,7.011789306640625,1.2523022005572917,-0.2093053059980273,7.416603705957532,0.2521228790283203,-1.2656694650650024,0.0955624133348465,jumping
1783087581153833200,7.021833251953125,2.253319463651627,1.835201457478106,5.33378737783134,0.3176937997341156,-1.7367916107177734,0.4172612130641937,jumping
1783087581163878100,7.031878173828125,3.1195868955165147,3.993278486032784,1.962827428176999,0.2614603638648987,-2.0680081844329834,0.7744201421737671,jumping
1783087581173922000,7.041922119140625,4.269919544678927,6.194003108441829,-1.6212094549685716,0.1115148216485977,-2.1122145652770996,1.2267985343933103,jumping
1783087581183966200,7.05196630859375,2.2236966249346732,6.18018267288208,-6.404322267657518,-0.0359611921012401,-1.527737736701965,1.5479238033294678,jumping
1783087581194011100,7.06201123046875,-3.0667776808708904,3.879201440475881,-9.759134800109267,-0.1676250994205474,-0.3914640545845032,1.593827247619629,jumping
1783087581204055000,7.072054931640625,-7.986193983972072,1.149932836189866,-12.105327923899887,-0.205688327550888,1.0419586896896362,1.5044382810592651,jumping
1783087581214099200,7.08209912109375,-5.702601401001215,0.7381894796147942,-17.021307822811604,-0.2796301245689392,2.9019272327423096,1.431737780570984,jumping
1783087581224143400,7.092143310546875,1.628316364364326,2.0838260896906253,-15.058071813833712,-0.737657904624939,3.7317490577697754,1.299860596656799,jumping
1783087581234188000,7.10218798828125,2.1857876039095223,1.5630086104124783,-10.829428866916894,-1.1198235750198364,3.404166460037231,0.8281239867210388,jumping
1783087581244232200,7.112232177734375,0.9392297191578894,1.5723489779487252,-8.62188491988182,-0.8085681796073914,2.5691287517547607,0.5261367559432983,jumping
1783087581254276400,7.1222763671875,-0.5388023410409689,2.2817855335488915,-7.110943765836954,0.1310976296663284,1.6892297267913818,0.3104083240032196,jumping
1783087581264321000,7.132321044921875,-2.583858847354352,2.528919927203655,-6.436991196072102,0.9636670351028442,1.0696003437042236,-0.0180734377354383,jumping
1783087581274365200,7.142365234375,-3.326012262164056,2.0568305307373405,-6.02038900128901,1.0681602954864502,0.5990372896194458,-0.2623273730278015,jumping
1783087581284409300,7.152409423828125,-3.3526404491096735,0.7819085020929575,-6.462297486764192,0.7153862714767456,0.1163332462310791,-0.5354284048080444,jumping
1783087581294454000,7.1624541015625,-3.7232331723898646,-0.7511468686044216,-6.384473657849431,0.463279128074646,-0.390172392129898,-0.775117039680481,jumping
1783087581304498200,7.172498291015625,-3.9392476206377145,-2.2809645725548267,-4.730473693913221,0.421098917722702,-0.9709606766700744,-0.9521620869636536,jumping
1783087581314542300,7.182542236328125,-3.9088948602110145,-3.067380322939157,-3.5229946776837107,0.360950767993927,-1.4264816045761108,-1.1539386510849,jumping
1783087581324587000,7.1925869140625,-3.5673140041425824,-1.93934543030262,-4.750294831192493,0.153587982058525,-1.39584219455719,-1.2182047367095947,jumping
1783087581334631200,7.202631103515625,-2.4404165911033746,-0.3893716580301523,-5.751313701722026,-0.0554084628820419,-1.1476577520370483,-1.1351298093795776,jumping
1783087581344675000,7.212675048828125,-1.4997743017338216,1.0351777452409268,-7.035048859158158,-0.0654501840472221,-0.8994700908660889,-1.0126243829727173,jumping
1783087581354720000,7.222719970703125,-1.175284865719825,2.7209105257853863,-8.22766289921105,0.0898571461439132,-0.6242527961730957,-0.8692858219146729,jumping
1783087581364764200,7.23276416015625,-1.289506142053008,4.213183804239333,-8.49709943330586,0.2721950113773346,-0.2307746857404709,-0.5488537549972534,jumping
1783087581374808000,7.24280810546875,-1.480911926484108,4.441032190404832,-8.310853223595023,0.4150824546813965,0.2427225708961486,-0.1918652653694152,jumping
1783087581384853200,7.252853271484375,-1.7556565038591625,3.7628511892899863,-7.145712881401181,0.5444968938827515,0.623081624507904,0.0308141559362411,jumping
1783087581394897200,7.262897216796875,-2.282835627123714,2.942571163226664,-5.92059299454093,0.6443276405334473,0.8245922923088074,0.129524365067482,jumping
1783087581404941000,7.272941162109375,-2.552053257770836,2.522138596500456,-5.2484349069774145,0.6382817029953003,0.93623548746109,0.1330200284719467,jumping
1783087581414986200,7.282986328125,-2.0460724053576587,1.9454323490008711,-4.764175472506881,0.4786856174468994,0.9493858814239502,0.0131973605602979,jumping
1783087581425030100,7.293030029296875,-1.9144065116181967,1.3886372551515698,-5.253757563304901,0.1861075609922409,0.7263941168785095,-0.1686483323574066,jumping
1783087581435074000,7.303073974609375,-1.7246825427941976,0.927758404007554,-6.533390546119213,-0.0979800820350647,0.3333290815353393,-0.3535830080509186,jumping
1783087581445119200,7.313119140625,-1.4179633028790355,0.9077081341475248,-8.126734089040756,-0.2334860265254974,-0.0557591579854488,-0.4595325887203216,jumping
1783087581455163100,7.3231630859375,-1.4540041919447482,1.5248057210072874,-10.284508335256575,-0.2256482988595962,-0.2349047511816024,-0.4726712107658386,jumping
1783087581465207000,7.33320703125,-1.2875949016042052,2.7619717272311446,-12.330809580934046,-0.1704121977090835,-0.0621731914579868,-0.388284683227539,jumping
1783087581475252200,7.343252197265625,-0.7110002977855503,3.7446936013087626,-13.289319097036122,-0.1908319294452667,0.320333182811737,-0.2745172381401062,jumping
1783087581485296000,7.353296142578125,-0.6760479346089064,4.305547615160048,-13.790779257154464,-0.1864198595285415,0.9068626761436462,-0.1372613757848739,jumping
1783087581495340000,7.363340087890625,-0.6456446130387484,4.609626423569023,-13.175552432602643,-0.1124365404248237,1.53425395488739,0.008147370070219,jumping
1783087581505385200,7.37338525390625,-0.633441695678234,4.449413357520103,-12.034337740397453,-0.0245698001235723,2.08070969581604,0.1341905295848846,jumping
1783087581515429400,7.383429443359375,-0.5632555220350622,3.4594469191417097,-10.872343295013904,-0.033827781677246,2.3091483116149902,0.21635203063488,jumping
1783087581525473000,7.39347314453125,0.1528553602298721,2.176886066181958,-9.145586722424628,-0.1762134134769439,2.05415940284729,0.2088792026042938,jumping
1783087581535518200,7.403518310546875,0.9566633767787368,1.6135931347459551,-7.750186841270327,-0.3555866479873657,1.4268962144851685,0.1614239662885666,jumping
1783087581545562400,7.413562255859375,1.2472948937892914,2.3241654163777827,-6.3245835450321435,-0.5302931666374207,0.7497134804725647,0.0613572783768177,jumping
1783087581555606000,7.42360595703125,1.9433897372573612,4.275567195177078,-4.267783117172121,-0.6754802465438843,0.0912829041481018,-0.0727306827902793,jumping
1783087581565650200,7.433650146484375,3.254254309159517,7.0006725423038,-1.9996692583620548,-0.6252070069313049,-0.4485379755496979,-0.048499908298254,jumping
1783087581575695400,7.4436953125,3.5717245140612124,8.543620945984125,0.5065414089053869,-0.4015398919582367,-0.8300945162773132,0.1981898844242096,jumping
1783087581585739000,7.453739013671875,3.182781602837145,6.954075626301765,3.106329354536533,-0.0669382065534591,-0.9080079793930054,0.3804483711719513,jumping
1783087581595783200,7.463783203125,1.9266839555196464,3.913672157615423,6.445979973691702,0.1883869767189026,-0.8810974359512329,0.4466749727725982,jumping
1783087581605828400,7.473828369140625,-0.2726886312259361,1.1827914419576524,10.045120902466774,0.2449317425489425,-0.9376475214958192,0.5003646016120911,jumping
1783087581615872300,7.483872314453125,-2.5221681148558854,-1.5267475027248265,13.854184684616326,0.1829971224069595,-1.139188289642334,0.4698403477668762,jumping
1783087581625916200,7.493916259765625,-3.690554014842212,-4.314940881927311,16.61992716255784,0.0402341149747371,-1.327192783355713,0.2134874016046524,jumping
1783087581635961300,7.50396142578125,-3.456785006456077,-5.914974570137262,18.18869857428074,-0.2627663612365722,-1.5606091022491455,-0.1460815370082855,jumping
1783087581646005200,7.514005126953125,-2.6971464960992333,-6.036673196613788,18.22601211363077,-0.658566415309906,-1.709412693977356,-0.4810323715209961,jumping
1783087581656049200,7.524049072265625,-1.4414000003069638,-4.864255556893348,16.53978570435047,-0.9705725312232972,-1.8337053060531616,-0.7278336882591248,jumping
1783087581666094000,7.534093994140625,-0.4013612249009311,-3.2523771171107887,13.780214608520268,-1.066146731376648,-1.8907946348190308,-0.8788444995880127,jumping
1783087581676138200,7.54413818359375,0.0846032599218189,-2.7318480993852017,11.485420248055457,-0.993510603904724,-1.8567107915878296,-0.97455495595932,jumping
1783087581686182100,7.55418212890625,0.4659314583584666,-2.825667369811237,9.620496144747731,-0.7816547751426697,-1.7224574089050293,-1.0221320390701294,jumping
1783087581696227000,7.56422705078125,1.0285339233122766,-2.7889047423422335,7.615321274706721,-0.4470737278461456,-1.432853937149048,-1.0258615016937256,jumping
1783087581706271200,7.574271240234375,1.5672947632990777,-2.758448229280114,5.594470696628093,-0.0147103331983089,-0.937530517578125,-0.9815350770950316,jumping
1783087581716315400,7.5843154296875,1.7954893325537442,-2.8780349781692025,4.6020291003078215,0.4826146364212036,-0.2520019710063934,-0.914320170879364,jumping
