time,seconds_elapsed,accel_x,accel_y,accel_z,gyro_x,gyro_y,gyro_z,label
1783090392959092500,0.052092529296875,0.0154070471640676,0.0043349604643881,0.0988093337982893,0.2792831063270569,-0.0370566695928573,-0.0527744032442569,standing
1783090392969137400,0.062137451171875,0.0034486060839146,-0.0390780648045241,0.2589864517509937,0.2533769607543945,-0.0036475774832069,-0.0540250241756439,standing
1783090392979181600,0.072181640625,0.0306401990659534,-0.1311848322242498,0.3210381265163421,0.2250608652830124,0.009548912756145,-0.0611760839819908,standing
1783090392989226200,0.082226318359375,0.0329823782779276,-0.1625587523922324,0.1374953305453062,0.2163464725017547,0.055473793298006,-0.0884777456521987,standing
1783090392999270400,0.0922705078125,-0.149009754185006,-0.0603264584079384,-0.0412953024625778,0.1378420889377594,0.1039456352591514,-0.0828005522489547,standing
1783090393009315600,0.102315673828125,-0.17656009747684,-0.0456822123099118,0.0522749616384506,0.0686944276094436,0.1406322717666626,-0.1015942171216011,standing
1783090393019359200,0.112359130859375,-0.1564679612364619,-0.0805358643524348,0.1545896732091903,0.0448333844542503,0.2154764384031295,-0.0444397069513797,standing
1783090393029403400,0.1224033203125,-0.3246498142074793,0.0097648765586316,0.2766886971801519,0.0200896896421909,0.2331670224666595,0.015887813642621,standing
1783090393039448600,0.132448486328125,0.2487115067783743,-0.5564634507421404,0.2075450183272361,0.0030644934158772,0.2141271382570266,-0.0177318602800369,standing
1783090393049492500,0.142492431640625,0.529518087606132,-0.262397502303496,-0.0561556024640798,0.0025811300147324,0.2116064578294754,-0.0106808748096227,standing
1783090393059537400,0.152537353515625,0.2532302993770688,0.0404356899585574,-0.0914870280861854,0.0356770604848861,0.2446808964014053,0.0439324155449867,standing
1783090393069581600,0.16258154296875,-0.0610224047828465,-0.0100143943402916,0.1563531757503747,0.0950780659914016,0.2437583804130554,0.0887467563152313,standing
1783090393079626500,0.17262646484375,-0.1442061532955616,-0.0469528898328542,0.1181669452190399,0.1316217333078384,0.2787571549415588,0.1301918774843216,standing
1783090393089670400,0.18267041015625,-0.2026401490204036,-0.0701955259934067,0.0235918879896402,0.1271039545536041,0.2590276598930359,0.1622912287712097,standing
1783090393099715600,0.192715576171875,-0.0312029475152492,-0.2456880673039704,0.1112462060451507,0.0915921181440353,0.2029340416193008,0.1744040697813034,standing
1783090393109759500,0.202759521484375,0.1468571061957627,-0.2425733693495392,-0.0071557169735431,0.064634270966053,0.125959888100624,0.1925806850194931,standing
1783090393119803400,0.212803466796875,0.1929856009684503,-0.1487270647861063,-0.1356032331883907,0.065764769911766,0.0384709574282169,0.2027212083339691,standing
1783090393129848600,0.2228486328125,0.1794943242978304,-0.0950813262511044,-0.2164788508892059,0.1004079654812812,-0.0299171544611454,0.2042080461978912,standing
1783090393139892200,0.232892333984375,0.0973302742216736,-0.0615280162174254,-0.1810199994951486,0.1529253125190735,-0.0901943296194076,0.1981486976146698,standing
1783090393149937400,0.2429375,-0.0108487993378192,-0.044477585760504,-0.0953279214233159,0.2101657092571258,-0.1339407414197921,0.1968584060668945,standing
1783090393159981600,0.252981689453125,-0.162418247942999,-0.046571927691251,-0.0194926359772682,0.2541142702102661,-0.1559830904006958,0.191824659705162,standing
1783090393170026500,0.263026611328125,-0.1365485512144863,-0.1027769953202456,0.0945879167109727,0.2732008695602417,-0.1903652995824813,0.174080029129982,standing
1783090393180070400,0.2730703125,-0.0738843705739825,-0.1567179904747754,0.1369786131948232,0.2618823051452636,-0.2219937443733215,0.1584705710411071,standing
1783090393190115300,0.283115234375,-0.0826559983115643,-0.1708231612600386,0.083727500000596,0.2162093669176101,-0.2489366829395294,0.1423954665660858,standing
1783090393200159500,0.293159423828125,-0.0627560967076569,-0.1895751349378377,0.0825888513594865,0.1594596207141876,-0.2747292816638946,0.1269330233335495,standing
1783090393210204400,0.303204345703125,-0.0614916297297924,-0.1990237120889127,0.0699818832427263,0.1188959553837776,-0.2763207852840423,0.1150862276554107,standing
1783090393220248600,0.31324853515625,-0.080376143746078,-0.2572276253849268,0.0765437259763479,0.1023087501525878,-0.2549887001514435,0.0968656167387962,standing
1783090393230292500,0.32329248046875,-0.0551928218465298,-0.2332156853523105,0.1052788220733404,0.0907383784651756,-0.2202690541744232,0.0586300864815712,standing
1783090393240337400,0.33333740234375,-0.0586240384042263,-0.1651729534786194,0.1407651459962129,0.0829230770468711,-0.1820879280567169,0.0209635309875011,standing
1783090393250381600,0.343381591796875,-0.104277463011071,-0.1536021234765648,0.1287462069004774,0.0681609064340591,-0.1328881680965423,-0.0133819263428449,standing
1783090393260426500,0.353426513671875,-0.1306013332478702,-0.1039077529158443,0.1426958217978477,0.0539053305983543,-0.0890552476048469,-0.0451111756265163,standing
1783090393270470400,0.363470458984375,-0.1600019075162708,-0.0680404668513685,0.1260246729820966,0.0398243963718414,-0.0285793878138065,-0.069410391151905,standing
1783090393280515300,0.373515380859375,-0.1305100017026066,-0.0966968716889619,0.1673772585898637,0.0083113713189959,0.0166399665176868,-0.0857335552573204,standing
1783090393290559500,0.3835595703125,-0.0758743022821843,-0.1450279180072247,0.174260588362813,-0.0299268290400505,0.035066645592451,-0.0953315868973732,standing
1783090393300604400,0.3936044921875,-0.0070407853569835,-0.1202237316183745,0.1259726505339145,-0.053597055375576,0.0294331479817628,-0.1039266064763069,standing
1783090393310648300,0.4036484375,0.0296499459195882,-0.0976859557915478,0.0317769480109214,-0.0368071570992469,0.0217001270502805,-0.0979701802134513,standing
1783090393320692500,0.4136923828125,0.0119756114106625,-0.0996889661770314,-0.0176133981019258,0.0010691618081182,0.0133359394967556,-0.083625391125679,standing
1783090393330737400,0.4237373046875,-0.0210728909060359,-0.1363982560236007,0.0044750995874404,0.0273585561662912,0.0070508792996406,-0.0680610761046409,standing
1783090393340781600,0.433781494140625,-0.0437271327193826,-0.2094919876765459,-0.0037041152149438,0.0278810821473598,0.0074043096974492,-0.0593308433890342,standing
1783090393350826500,0.443826416015625,-0.0514266011808067,-0.2468901365701109,0.0320014044165611,0.0071334606036543,0.0060663376934826,-0.0569771416485309,standing
1783090393360870400,0.453870361328125,-0.0212879218962043,-0.2009359754510223,0.0670551821410656,-0.0115428529679775,0.005695404484868,-0.0575543753802776,standing
1783090393370915300,0.463915283203125,-0.0098046240471303,-0.1615416112389415,0.0690431410878896,-0.0126824202015995,-0.0006082979962229,-0.0533178187906742,standing
1783090393380959500,0.47395947265625,-0.0148323890812695,-0.1228731501486152,0.0073240592777729,0.0010606159921735,-0.00191196706146,-0.0432410277426242,standing
1783090393391004700,0.484004638671875,-0.0642580987684428,-0.1560276701230555,0.021296470528841,0.0110820913687348,0.0028891798574477,-0.0314362980425357,standing
1783090393401048300,0.49404833984375,-0.0936275472462177,-0.2209290352310985,0.0204003984719514,0.0023881858214735,0.0138043873012065,-0.0293477028608322,standing
1783090393411093500,0.504093505859375,-0.0918558613985776,-0.2307555057838559,0.0383633406639099,-0.0150589812546968,0.0316459685564041,-0.0301162898540496,standing
1783090393421137700,0.5141376953125,-0.0809555510692298,-0.2162933382544666,0.0649725306481122,-0.0250936411321163,0.0402799770236015,-0.034901525825262,standing
1783090393431181300,0.524181396484375,-0.0286828544531017,-0.1590743443425744,0.0605915390849113,-0.0259122978895902,0.0389230921864509,-0.0364887677133083,standing
1783090393441226500,0.5342265625,-0.0241246066268533,-0.1287985216096043,0.0279454070240259,-0.0065150232985615,0.0280628725886344,-0.0388574562966823,standing
1783090393451270400,0.5442705078125,-0.0790177879396826,-0.1683415735773742,-0.0103629885822534,0.0161226466298103,0.0290112234652042,-0.0400505512952804,standing
1783090393461315300,0.5543154296875,-0.0515541000179946,-0.1957750855565071,0.0294575651526451,0.0230490434914827,0.0319173745810985,-0.0532266125082969,standing
1783090393471359500,0.564359375,-0.0407004053093493,-0.174584998011589,0.0514794273465871,0.0054673869162797,0.0420552305877208,-0.0677682682871818,standing
1783090393481404400,0.574404296875,-0.0264673703607171,-0.1399177353866398,0.0908621741861104,-0.0237372461706399,0.0519628450274467,-0.0782187134027481,standing
1783090393491448300,0.5844482421875,0.0325027780674397,-0.0936018282830715,0.1044026237607002,-0.0538722462952137,0.0484011322259902,-0.0765957832336425,standing
1783090393501493500,0.594493408203125,0.0215144971936941,-0.099786216006428,0.0685948127985,-0.0643118321895599,0.0404675751924514,-0.0680297240614891,standing
1783090393511537700,0.60453759765625,-0.0635935704451054,-0.1832081571891903,-0.0244108031570911,-0.0443144254386425,0.0322991274297237,-0.0630964860320091,standing
1783090393521581300,0.614581298828125,-0.1401278710059821,-0.259156036164239,-0.0402034155726432,-0.007755528204143,0.0446030460298061,-0.0613125599920749,standing
1783090393531626500,0.62462646484375,-0.2033028507128357,-0.2807306660473346,-0.0508849685847759,0.0240247715264558,0.0619048066437244,-0.0627940818667411,standing
1783090393541670700,0.634670654296875,-0.3418563120089471,-0.329772052592039,-0.1003548096746206,0.0394036918878555,0.0890818312764167,-0.0743169859051704,standing
1783090393551715300,0.64471533203125,-0.3082817399915307,-0.3155672208245843,0.0134656307727098,0.0331841446459293,0.0935852378606796,-0.0795828476548194,standing
1783090393561759500,0.654759521484375,-0.0750228730846196,-0.192721762400493,0.1651011303514242,0.0201223604381084,0.0685800909996032,-0.0744342282414436,standing
1783090393571804400,0.664804443359375,0.2069936680547893,-0.1200277706548571,0.1913724666833877,0.0064731268212199,0.0296611860394477,-0.076189786195755,standing
1783090393581848300,0.674848388671875,0.3807257024988532,-0.1293065441969782,0.1381833128094673,-0.012331236153841,-0.0045810504816472,-0.0929923951625824,standing
1783090393591893500,0.6848935546875,0.3943729734487831,-0.1312721451815217,0.0613543401509523,-0.032414399087429,-0.0306992027908563,-0.103555291891098,standing
1783090393601937400,0.6949375,0.3010805764410644,-0.1488910231761634,0.0399041403651237,-0.0402617119252681,-0.0374678187072277,-0.0954178050160408,standing
1783090393611981300,0.704981201171875,0.1595933997806161,-0.1827063451468944,0.0446060344457626,-0.0392899252474308,-0.034091729670763,-0.081250324845314,standing
1783090393622026500,0.715026611328125,0.0432487746179103,-0.1924294283904135,0.0847574275702238,-0.0219465754926204,-0.0245143603533506,-0.0564683452248573,standing
1783090393632070400,0.7250703125,0.0707066903859376,-0.2227850383613258,0.1148918690711259,0.00452098576352,-0.0147898271679878,-0.0317637994885444,standing
1783090393642115300,0.735115234375,0.1135799827549606,-0.2045382377266883,0.0963221931576728,0.0366316922008991,-0.000467381440103,-0.0088970940560102,standing
1783090393652159200,0.7451591796875,0.1056213519006967,-0.1551516179408878,0.0598971270799636,0.054990991950035,0.0194506663829088,0.0023262661416083,standing
1783090393662204200,0.7552041015625,0.1159470772124826,-0.0955132148623466,0.0809820006847381,0.044841218739748,0.0378851927816867,0.0100729167461395,standing
1783090393672248300,0.765248291015625,0.0875054111041128,-0.060412967647612,0.1152536881208419,0.0096118589863181,0.0410106815397739,0.0242289490997791,standing
1783090393682293500,0.77529345703125,0.1018931251578032,-0.0806297531809657,0.126797995442152,-0.0345024093985557,0.0262005273252725,0.040086030960083,standing
1783090393692337200,0.785337158203125,0.1481543794646859,-0.110224607912451,0.0695545977413654,-0.0606746263802051,-0.0052729765884578,0.0585297532379627,standing
1783090393702381300,0.79538134765625,0.1599061920568346,-0.1300138156834989,-0.0160346044778823,-0.0613569170236587,-0.0321462973952293,0.0654361173510551,standing
1783090393712426500,0.805426513671875,0.1668674093715846,-0.1694425936218351,-0.0344219095617532,-0.0423520654439926,-0.0562250018119812,0.0601867623627185,standing
1783090393722470400,0.815470458984375,0.0591628945212811,-0.2178843337729573,-0.0702700525343418,-0.0238161124289035,-0.0660056099295616,0.0563117340207099,standing
1783090393732515300,0.825515380859375,-0.0599829787325114,-0.2737527898587286,-0.061463061222434,-0.0156535245478153,-0.0727849528193473,0.0522490814328193,standing
1783090393742559500,0.8355595703125,-0.0909419614240527,-0.2762383230641484,-0.0032791678011417,-0.0093099176883697,-0.0818494781851768,0.054040789604187,standing
1783090393752604200,0.845604248046875,-0.0464729973614215,-0.2062497178196907,0.0565577535241842,0.002048464026302,-0.0885920748114585,0.0587524510920047,standing
1783090393762648300,0.8556484375,0.0471639022350311,-0.1413622351065278,0.0778799430161714,0.0179759506136178,-0.0897592604160308,0.061741579324007,standing
1783090393772693500,0.865693603515625,0.0658106619726866,-0.0833732797354459,0.0701776980757713,0.0283718649297952,-0.0816273018717765,0.0595306232571601,standing
1783090393782737200,0.875737060546875,0.0647189212132245,-0.0497341911144554,0.0859533593565225,0.0253741182386875,-0.0668680965900421,0.0518769696354866,standing
1783090393792781300,0.88578125,0.0568975068725645,-0.0593763911414891,0.1131418105334043,0.0111871939152479,-0.0535192713141441,0.0468481220304966,standing
1783090393802826500,0.895826416015625,0.0590021510016173,-0.0809911338392645,0.0962894599318504,-0.0083023458719253,-0.0382498502731323,0.0378225333988666,standing
1783090393812870100,0.9058701171875,0.0593872778616845,-0.0930337460715323,0.0869774417072534,-0.026098920032382,-0.0305477231740951,0.030303094536066,standing
1783090393822915300,0.915915283203125,0.0279473797854036,-0.1205213263254612,0.0788321291744709,-0.0324499942362308,-0.0209069903939962,0.0329679325222969,standing
1783090393832959500,0.92595947265625,-0.0095645316809415,-0.1270074734743684,0.0986117653995752,-0.0296291746199131,-0.0059370971284806,0.0404000170528888,standing
1783090393843004200,0.936004150390625,-0.0095538641564548,-0.1012005397837609,0.1051215856850147,-0.0178155228495597,0.0093366242945194,0.054386731237173,standing
1783090393853048300,0.94604833984375,0.0355419265676289,-0.097919253090769,0.1024473980396986,-0.0122838709503412,0.0269110910594463,0.0623344033956527,standing
1783090393863093500,0.956093505859375,0.0575923572689294,-0.1298544604033231,0.1002618706941604,-0.0126791261136531,0.0454920381307601,0.0635218396782875,standing
1783090393873137200,0.96613720703125,-0.0032354017246514,-0.1757815873850136,0.0748281542301178,-0.0180938653647899,0.052645556628704,0.0539786703884601,standing
1783090393883181300,0.976181396484375,-4.28162284195e-05,-0.1998082865953445,0.0408382063448429,-0.0204834267497062,0.0527912676334381,0.037166129797697,standing
1783090393893226500,0.9862265625,0.0332703283738344,-0.2078916398078203,0.0155137954741716,-0.0191659610718488,0.052087128162384,0.0265667513012886,standing
1783090393903270100,0.996270263671875,-0.0102943072602152,-0.1985213885899633,0.0168587803423404,-0.0156186856329441,0.0534064285457134,0.0174256581813097,standing
1783090393913315300,1.0063154296875,-0.0480634083580225,-0.2395069675162434,0.0238555073618888,-0.0227807238698005,0.0498098284006118,0.0036307496484369,standing
1783090393923359500,1.016359375,-0.0504627245847135,-0.2619713858459144,0.0332528657823801,-0.0389624796807765,0.0449763387441635,-0.0156932212412357,standing
1783090393933404400,1.026404296875,-0.0103141079392284,-0.2548032477822154,0.0457166260361671,-0.0536119975149631,0.036451555788517,-0.0226597841829061,standing
1783090393943448300,1.0364482421875,-0.0384979998942464,-0.214677062164247,0.0563894112199544,-0.0504947267472744,0.0293429717421531,-0.0263790860772132,standing
1783090393953493200,1.0464931640625,-0.0656736646547913,-0.2306586943458765,0.0345183556735515,-0.0236905440688133,0.017522532492876,-0.0276235826313495,standing
1783090393963537200,1.056537109375,-0.0022861381758004,-0.2318480502609163,0.0180810156136751,0.006638019811362,0.005150175653398,-0.0223672296851873,standing
1783090393973581300,1.066581298828125,0.086460578226298,-0.2085647898290306,0.0197293673425912,0.0225016716867685,-0.0055213770829141,-0.0225461944937706,standing
1783090393983626200,1.076626220703125,0.0575012449193745,-0.2091257116474211,0.018940847313404,0.0142966425046324,-0.0140506401658058,-0.0227074436843395,standing
1783090393993670100,1.086670166015625,0.0141029057629406,-0.242884846451506,0.0414221437126398,-0.0028141681104898,-0.0278948154300451,-0.0196895487606525,standing
1783090394003715300,1.09671533203125,0.0052040714491158,-0.243481643300876,0.0628846184581518,-0.0099553428590297,-0.0415408164262771,-0.0189015232026577,standing
1783090394013759500,1.106759521484375,-0.0146923960886895,-0.2469984192501753,0.0521083728998899,-0.0021157956216484,-0.0453619211912155,-0.0215617530047893,standing
1783090394023804400,1.116804443359375,-0.0298643193226307,-0.2469961542278528,0.0313069924116134,0.0159357786178588,-0.0387719683349132,-0.0306702312082052,standing
1783090394033848300,1.126848388671875,-0.0106329646300524,-0.232283592133969,0.0520738861083984,0.0321176797151565,-0.0271989367902278,-0.034006904810667,standing
1783090394043893200,1.136893310546875,0.0200613757759332,-0.2177449983675032,0.0330249022454023,0.0390401966869831,0.000886155758053,-0.0388372056186199,standing
1783090394053937400,1.1469375,0.0111090577092021,-0.2304817303437739,0.0474433036983013,0.0324001349508762,0.0226007718592882,-0.0406177975237369,standing
1783090394063981300,1.156981201171875,-0.0078005907483398,-0.232376823375374,0.1237321781307458,0.0265215616673231,0.0375524051487445,-0.0349355414509773,standing
1783090394074026200,1.167026123046875,-0.0424514136951416,-0.2353668720368295,0.0622638562113046,0.0293591599911451,0.0428579524159431,-0.0169184580445289,standing
1783090394084070400,1.1770703125,-0.1019776616360992,-0.2494966658066958,0.0028501287341117,0.0439187102019786,0.047037024050951,-0.0075595136731863,standing
1783090394094115300,1.187115234375,-0.1337423346873372,-0.2203794385243207,0.0199427178323268,0.0558749735355377,0.0527902506291866,-0.0017074837815016,standing
1783090394104159200,1.1971591796875,-0.0876708307988941,-0.1809939152058214,0.0796183111160993,0.0551089197397232,0.0521182194352149,0.0033481903374195,standing
1783090394114204400,1.207204345703125,-0.0423830246340483,-0.1569047452185303,0.0935199952185154,0.0373621508479118,0.045778565108776,0.003393464256078,standing
1783090394124248300,1.217248291015625,0.0035883068155497,-0.1480992882765829,0.0689618925452232,0.0080547640100121,0.0369584821164608,0.0007147279102355,standing
1783090394134293200,1.227293212890625,0.0456081972256302,-0.1656836064144969,0.0606260258764028,-0.0227912999689579,0.0240554679185152,-0.0113214291632175,standing
1783090394144337400,1.23733740234375,0.0897771554283797,-0.1780973169814795,0.0152513451457023,-0.0438380725681781,0.0103926472365856,-0.0173850543797016,standing
1783090394154381300,1.24738134765625,0.0918630217917263,-0.1637888787090778,-0.063262804120779,-0.0338397659361362,-0.0134061593562364,-0.0161754470318555,standing
1783090394164426200,1.25742626953125,-0.0007176467500627,-0.1650135981984436,-0.0309504340589046,0.0064329081214964,-0.0224373545497655,0.0043488722294569,standing
1783090394174470400,1.267470458984375,-0.0765251674063503,-0.1796026069778949,8.47556740045e-05,0.043150708079338,-0.0237492285668849,0.0250477604568004,standing
1783090394184515300,1.277515380859375,-0.0799986156705766,-0.2206624201841652,0.0697656101435422,0.0458248332142829,-0.0269054137170314,0.0289999581873416,standing
1783090394194559200,1.287559326171875,-0.0057234922133386,-0.225578468472138,0.1141740761905908,0.0245174132287502,-0.0280993096530437,0.0245325043797492,standing
1783090394204604400,1.2976044921875,0.0077144468348473,-0.1825404139954596,0.1108972464770078,-0.0007536446209996,-0.0300662815570831,0.0176472403109073,standing
1783090394214648300,1.3076484375,0.0424648576986044,-0.1341807261046022,0.0780751733273267,-0.0142968837171792,-0.0332202613353729,0.0057551609352231,standing
1783090394224693200,1.317693359375,0.0876125247403979,-0.1273481766708195,0.0619248335152864,-0.0165270511060953,-0.0344445928931236,-0.0025600977241992,standing
1783090394234737400,1.3277373046875,0.0735359955277293,-0.1451960411157458,0.034700141981244,-0.0154993366450071,-0.0348528549075126,-0.0122097954154014,standing
1783090394244781300,1.33778125,0.0164501264762133,-0.1830281975124031,0.0340799642562866,-0.0210854485630989,-0.0363764911890029,-0.0192684382200241,standing
1783090394254826200,1.347826171875,-0.0368807008907198,-0.1923403618674725,0.0323158771932125,-0.0303314104676246,-0.0380130037665367,-0.023002989590168,standing
1783090394264870400,1.357870361328125,-0.0624880203559994,-0.1829879385672509,0.074570380076766,-0.035294946283102,-0.0463677421212196,-0.0175850056111812,standing
1783090394274915300,1.367915283203125,-0.0696639033347368,-0.1445628577787429,0.0555833555340766,-0.0251448396593332,-0.0516597107052803,-0.0099641028791666,standing
1783090394284959200,1.377959228515625,-0.0332790231369435,-0.1315768272165209,0.0587105476438999,-0.0021955638658255,-0.0534213297069072,-0.0052974922582507,standing
1783090394295004400,1.38800439453125,-0.015165639623627,-0.1615345969762653,0.0593038373619317,0.0217952579259872,-0.0403856895864009,-0.0103250071406364,standing
1783090394305048300,1.39804833984375,-0.0200962278936058,-0.1939609488066285,0.0479033224254846,0.0263546742498874,-0.022851588204503,-0.0152168348431587,standing
1783090394315093200,1.40809326171875,0.0144788264032453,-0.1893332159407436,0.098822777801752,0.0100321611389517,-0.0112625751644372,-0.0194360800087451,standing
1783090394325137400,1.418137451171875,0.0358972428113222,-0.2036621124792844,0.1055325045734643,-0.0112081849947571,0.0047813705168664,-0.0179361253976821,standing
1783090394335181300,1.428181396484375,0.0499832705046981,-0.2021265734750777,0.0789227300673723,-0.0322474241256713,0.0125415548682212,-0.0205135308206081,standing
1783090394345226200,1.438226318359375,0.0737993226390331,-0.2019493172120302,0.0586205312728881,-0.048862487077713,0.0195608101785182,-0.0305847413837909,standing
1783090394355270400,1.4482705078125,0.0303592632327228,-0.2364260257009416,0.012512275570631,-0.0544990673661232,0.0246237460523843,-0.02681690081954,standing
1783090394365315300,1.4583154296875,-0.1013579953677952,-0.2326931227829307,-0.0359621247410774,-0.0458863154053688,0.0226315483450889,-0.0131923025473952,standing
1783090394375359200,1.468359130859375,-0.1033825599979609,-0.2001758047334849,-0.0290893163621425,-0.0242739636451005,0.0187217630445957,0.0031595064792782,standing
1783090394385404400,1.478404296875,-0.0184724991492927,-0.2093036985628306,0.0108715226262807,-0.0006089399103075,0.0087452586740255,0.013762617483735,standing
1783090394395448300,1.4884482421875,0.0416919736299663,-0.1950696407008916,0.0118733931452035,0.0160099845379591,-0.0044453786686062,0.0123966820538043,standing
1783090394405492200,1.4984921875,0.0788912389505654,-0.1944154145758599,0.0203776021182537,0.0180014129728078,-0.0073087364435195,0.0026002407539635,standing
1783090394415537400,1.508537353515625,0.1306557668488472,-0.1926107032414525,0.0807540371477603,0.0116348601877689,-0.0087228743359446,-0.0097040962427854,standing
1783090394425581300,1.518581298828125,0.1405534760069102,-0.1880865768805146,0.1156692831844091,-2.96586658805e-05,0.0055121048353612,-0.0235039927065372,standing
1783090394435626200,1.528626220703125,0.101501422426477,-0.1962892456237226,0.1236526831537485,-0.0139497350901365,0.0213970616459846,-0.0274049900472164,standing
1783090394445670400,1.53867041015625,0.029572935160622,-0.1935596014641225,0.1359586224973201,-0.0249888077378273,0.0295602604746818,-0.023115836083889,standing
1783090394455715300,1.54871533203125,-0.0702023210603743,-0.2153746890395879,0.1171966388821601,-0.0324515178799629,0.0198298674076795,-0.0029783430509269,standing
1783090394465759200,1.55875927734375,-0.0820566441789269,-0.2954968580245971,0.0435386974751949,-0.0240364540368318,0.0031609882134944,0.0250013545155525,standing
1783090394475804400,1.568804443359375,0.005623831231147,-0.3022645985938608,-0.0043780689537525,-0.0009865281172096,-0.0146379824727773,0.0449604168534278,standing
1783090394485848300,1.578848388671875,0.1073462029319256,-0.2632895557723939,-0.0213648595899343,0.0201039351522922,-0.0273023415356874,0.0417907200753688,standing
1783090394495892200,1.588892333984375,0.1469382816731929,-0.2361377102788537,-0.0390372944027185,0.0310796219855546,-0.0355022177100181,0.0316211730241775,standing
1783090394505937400,1.5989375,0.1181244943168014,-0.1768809269290417,-0.0210948104768991,0.031264130026102,-0.0434308238327503,0.0139306616038084,standing
1783090394515981300,1.608981201171875,0.0947485141001641,-0.1268392773006111,0.0294786079406738,0.0236738547682762,-0.0551351532340049,-0.0031923991627991,standing
1783090394526026200,1.619026123046875,0.0206914903730154,-0.1028446537289768,0.0725526105135679,0.0132940411567687,-0.0599395669996738,-0.0179626196622848,standing
1783090394536070400,1.6290703125,-0.0395391795102506,-0.1289667908485978,0.1105903724849224,0.0039316983893513,-0.0524616762995719,-0.0219839923083782,standing
1783090394546115300,1.639115234375,-0.0485991957351565,-0.1910932844158261,0.1307867728173732,-0.0095581784844398,-0.041189432144165,-0.0187184289097785,standing
1783090394556159200,1.6491591796875,-0.0098517511244863,-0.2189361078482121,0.0977092636018991,-0.0198190715163946,-0.0290483459830284,-0.008210927248001,standing
1783090394566204400,1.659204345703125,0.0170635091342031,-0.2129787338137626,0.079031451138854,-0.0227623973041772,-0.0213728509843349,-0.0020568943582475,standing
1783090394576248300,1.669248291015625,0.0697023356489837,-0.182461868866533,0.0419786085516214,-0.0166456494480371,-0.0253215190023183,0.0118011310696601,standing
1783090394586292200,1.679292236328125,0.1169685292147099,-0.1556735229231417,0.0185778592199087,0.0005751161370426,-0.0365444310009479,0.0193567089736461,standing
1783090394596337700,1.689337646484375,0.0989871745832264,-0.1467134599413722,0.0034574469774961,0.0150920068845152,-0.0489845871925354,0.0240313559770584,standing
1783090394606381300,1.69938134765625,0.0636715310521423,-0.1327696902628987,0.0321311682760715,0.0183124225586652,-0.0633710473775863,0.0254331864416599,standing
1783090394616426500,1.709426513671875,0.0365842752274125,-0.1557926923234015,0.021434417694807,0.0031888631638139,-0.0720979645848274,0.0238483399152755,standing
1783090394626470700,1.719470703125,-0.0068410980664193,-0.1726229041583836,0.0551373653322458,-0.0157611593604087,-0.0692663118243217,0.0246599987149238,standing
1783090394636515300,1.729515380859375,-0.0586203120771795,-0.1551640390310436,0.079120882987976,-0.0294482093304395,-0.0666644051671028,0.0201227702200412,standing
1783090394646559500,1.7395595703125,-0.0998182185798883,-0.1392604405216872,0.0858423001974821,-0.0297658424824476,-0.0619208514690399,0.0160382855683565,standing
1783090394656603600,1.749603759765625,-0.157330934741348,-0.1160412583019584,0.05705050547719,-0.013686740770936,-0.0586712583899498,0.0097569534555077,standing
1783090394666648300,1.7596484375,-0.1763958468258381,-0.0870295372206717,0.0521375989943742,0.0058029452338814,-0.0503335557878017,0.0021293214522302,standing
1783090394676692500,1.7696923828125,-0.1237231180414557,-0.0948934024635702,0.0871504601866006,0.0177783817052841,-0.0384787619113922,-0.0040220478549599,standing
1783090394686737700,1.779737548828125,-0.0709683369968086,-0.1244098581966012,0.0935480522692203,0.0124579910188913,-0.0309525821357965,-0.011510313488543,standing
1783090394696781300,1.78978125,-0.0453213431082665,-0.124338400395587,0.0894803644388914,0.000744875986129,-0.0184096246957778,-0.0179682131856679,standing
1783090394706826500,1.799826416015625,0.0155007898621261,-0.1397465435381978,0.073447513526678,-0.0059152520261704,-0.0093311378732323,-0.0198599863797426,standing
1783090394716870700,1.80987060546875,0.0635900633137673,-0.1180733486514538,0.0813251150339841,-0.0062425546348094,0.0088984658941626,-0.0234395414590835,standing
1783090394726915300,1.819915283203125,0.0405525212712585,-0.1196292728565633,0.0821849467337131,-0.0170824192464351,0.0368352904915809,-0.0403229184448719,standing
1783090394736959500,1.82995947265625,0.0229380271907895,-0.1495982215974479,0.080734163403511,-0.0417619310319423,0.0597648434340953,-0.0630197077989578,standing
1783090394747003600,1.840003662109375,-0.0136827806547284,-0.1894811730440705,0.0974351228356361,-0.0730786547064781,0.0773305967450141,-0.0790990814566612,standing
1783090394757048300,1.85004833984375,-0.061723684919998,-0.224161002889648,0.1008627591967582,-0.0922427624464035,0.0921952947974205,-0.0903059244155883,standing
1783090394767092500,1.860092529296875,-0.0701807668156921,-0.2432447658050805,0.1144873799234628,-0.0942757800221443,0.1086548119783401,-0.1008625030517578,standing
1783090394777137400,1.870137451171875,-0.084778981814906,-0.2383679535489529,0.1121305876642465,-0.0832833126187324,0.123781032860279,-0.1073840484023094,standing
1783090394787181300,1.880181396484375,-0.1334380179785192,-0.2137362741827964,0.0854354729622602,-0.0750442072749137,0.1315533965826034,-0.1144344955682754,standing
1783090394797226500,1.8902265625,-0.1182700402673333,-0.2170768167823553,0.0634685558259487,-0.0564454905688762,0.1217572167515754,-0.1192114129662513,standing
1783090394807270400,1.9002705078125,-0.102291257629916,-0.2017898888666182,0.008815759140253,-0.0338312499225139,0.1036718115210533,-0.1256773024797439,standing
1783090394817315300,1.9103154296875,-0.0919598332297056,-0.200163018317148,-0.0219745159208774,-0.0135784419253468,0.087183378636837,-0.1295396834611892,standing
1783090394827359500,1.920359375,-0.040447307331115,-0.1863463821496814,0.0001952303111553,-0.0070864111185073,0.0757226571440696,-0.1307870298624038,standing
1783090394837403600,1.930403564453125,-0.0404121629524975,-0.1768877950612455,0.0254220260262489,-0.0123600028455257,0.0630209743976593,-0.1297425478696823,standing
1783090394847448300,1.9404482421875,-0.0161144647810608,-0.1564532020587474,0.070288172712922,-0.0293699670583009,0.0450842045247554,-0.1200091019272804,standing
1783090394857492500,1.950492431640625,0.0269347686767578,-0.1665700338602066,0.05981061784029,-0.0571613833308219,0.0229946132749319,-0.1051441356539726,standing
1783090394867537400,1.960537353515625,0.0853960177347064,-0.1422442055728286,0.0760784465521574,-0.0790976658463478,-0.0081371665000915,-0.0880156084895134,standing
1783090394877581300,1.970581298828125,0.1112351001292467,-0.1156971210394054,0.0533113189488649,-0.0854626223444938,-0.0345115140080452,-0.0710547342896461,standing
1783090394887626500,1.98062646484375,0.073942749697715,-0.1310495154067874,0.0097124157190322,-0.0715413093566894,-0.0522689782083034,-0.046426884829998,standing
1783090394897670400,1.99067041015625,0.0194666247531771,-0.1978000155128538,-0.046468321186304,-0.0483249388635158,-0.0517262257635593,-0.0231908019632101,standing
1783090394907714300,2.00071435546875,0.0369840881999582,-0.2108915522761642,-0.0198936179935932,-0.0221174266189336,-0.0465510189533233,-0.0008783764205873,standing
1783090394917759500,2.010759521484375,0.0785546274073421,-0.2171019512236118,-0.0091933602809906,-0.0028752898797392,-0.0436913184821605,0.0128262499347329,standing
1783090394927803400,2.020803466796875,0.057365562775731,-0.1772429651744663,-0.0230213946253061,0.0046988273970782,-0.0400626473128795,0.0193221010267734,standing
1783090394937848600,2.0308486328125,0.0142035896584391,-0.1454038386475294,0.0200572841227054,-0.0017787792021408,-0.0376942977309227,0.0172733310610055,standing
1783090394947892500,2.040892578125,-0.0462055055316537,-0.1153397589690983,0.0372714537739753,-0.0198016744107007,-0.0366339832544326,0.0119533315300941,standing
1783090394957937400,2.0509375,-0.0760742818336933,-0.1237829584699124,0.0685077190369367,-0.038934089243412,-0.0366022884845733,0.0079506002366542,standing
1783090394967981300,2.060981201171875,-0.0837215817164629,-0.1533181919686496,0.0857575445234775,-0.0513447187840938,-0.0431992895901203,0.0063723367638885,standing
1783090394978026500,2.071026611328125,-0.0630103637296706,-0.1719244735654443,0.1021013610810041,-0.0455960184335708,-0.0623002797365188,0.0125833619385957,standing
1783090394988070400,2.0810703125,0.0160544051568955,-0.1634727984972298,0.0706207656681537,-0.0293000638484954,-0.088759496808052,0.0236554630100727,standing
1783090394998114300,2.0911142578125,0.0558143878109753,-0.1479802650067955,0.0091021748661994,0.0015345471911132,-0.1078714057803154,0.0370722040534019,standing
1783090395008159500,2.101159423828125,0.0774876557629555,-0.1565809931568801,0.0123094464749097,0.0219480786472558,-0.1291948407888412,0.0483574159443378,standing
1783090395018203400,2.111203369140625,0.110108872578293,-0.1583387235444039,0.0191962833791971,0.0310140121728181,-0.1508990675210952,0.0616388656198978,standing
1783090395028248600,2.12124853515625,0.1127103603135794,-0.1841840164840221,0.01753098051548,0.029535736888647,-0.165232628583908,0.0726344510912895,standing
1783090395038292500,2.13129248046875,0.1013977428562939,-0.1771420620832592,0.0390747038036584,0.0327171497046947,-0.1754506379365921,0.0826759040355682,standing
1783090395048337400,2.14133740234375,0.1078265337947756,-0.1333588152624666,0.029534137520194,0.0438004620373249,-0.1656205803155899,0.0802682116627693,standing
1783090395058381600,2.151381591796875,0.0517316485419869,-0.1192294598840177,0.0723579647243022,0.0544344633817672,-0.1381657868623733,0.0711237117648124,standing
1783090395068425500,2.161425537109375,-0.0015578969664871,-0.1038238740246742,0.1219423721045255,0.0448935180902481,-0.1023062765598297,0.0609991773962974,standing
1783090395078470400,2.171470458984375,-0.0398206998653709,-0.1099805700235068,0.1628811162143945,0.0161819774657487,-0.0612728185951709,0.0451903864741325,standing
1783090395088514600,2.1815146484375,-0.0390504461452364,-0.1179442423790693,0.1586649598240852,-0.0195724479854106,-0.0263843610882759,0.0390901304781436,standing
1783090395098559500,2.1915595703125,-0.043669411182776,-0.1345575965929776,0.1265267772853374,-0.0381615757942199,0.0073107504285871,0.0341289304196834,standing
1783090395108603400,2.201603271484375,-0.0113444008350372,-0.1568722311884164,0.0689899495959281,-0.0403943955898284,0.0317829325795173,0.0354454815387725,standing
1783090395118648600,2.211648681640625,0.0549074290338903,-0.173787198697403,0.0663671998769044,-0.023797309026122,0.0470196790993213,0.0382977202534675,standing
1783090395128692500,2.2216923828125,0.1155736407902091,-0.2118414734121411,0.0411918420881032,-0.0037066414952278,0.0585542060434818,0.0414492413401603,standing
1783090395138737400,2.2317373046875,0.0909070362411439,-0.2133628377605229,0.0349216757774353,0.0045765885151922,0.0574750937521457,0.0397133938968181,standing
1783090395148781600,2.241781494140625,0.0602878799632191,-0.2287595827262848,0.0370475818902254,0.0046817325055599,0.0528850965201854,0.0380168929696083,standing
1783090395158825500,2.251825439453125,0.0188508309423923,-0.2550839644197374,0.0392272640168666,0.0001676743850111,0.0449387580156326,0.0364466942846775,standing
1783090395168870400,2.261870361328125,0.0310102014221251,-0.2667337779421359,0.0505202269256114,-0.0082352664321661,0.0360675379633903,0.028704285621643,standing
1783090395178914600,2.27191455078125,-0.0232811415400356,-0.2682118146054446,0.0595399842053651,-0.0157565660774707,0.0244881156831979,0.0198748409748077,standing
1783090395188959500,2.28195947265625,-0.0340868323884904,-0.2982590162143111,0.0211772280633449,-0.0191841349005699,0.0018656286410987,0.0104460511356592,standing
1783090395199003400,2.29200341796875,-0.0060933484390377,-0.3033393882185221,-0.0270195243507623,-0.0214257165789604,-0.0212335661053657,0.0156043274328112,standing
1783090395209048600,2.302048583984375,0.0194040809109807,-0.262395091150701,-0.0341454307079315,-0.011933141387999,-0.0499169528484344,0.0252331160008907,standing
1783090395219092500,2.312092529296875,0.0337480288881808,-0.2540469495221972,-0.0499053098976612,0.0077004805207252,-0.0724438279867172,0.0353294275701046,standing
1783090395229136400,2.322136474609375,0.0722302466914057,-0.236432382376492,-0.0330243177235126,0.0308479629456996,-0.0909089371562004,0.030317360535264,standing
1783090395239181600,2.332181640625,0.0796799781754612,-0.2421712913546711,-0.0219540576547384,0.0447797551751136,-0.1037850528955459,0.019021563231945,standing
1783090395249225500,2.3422255859375,0.0440968428146094,-0.2597054867405444,0.0141764093905687,0.0462541729211807,-0.0939584821462631,-0.0008770448621362,standing
1783090395259270400,2.3522705078125,-0.0009797317523509,-0.2465047174490988,0.0795692112773656,0.0337279960513114,-0.075657770037651,-0.0258335284888744,standing
1783090395269314600,2.362314453125,-0.0400330274417996,-0.2552887662768364,0.0989244846105575,0.0130311120301485,-0.0497165732085704,-0.0401638001203537,standing
1783090395279359200,2.372359130859375,-0.075720646090433,-0.2637528624352067,0.1426905611008405,-0.008400410413742,-0.0261646378785371,-0.0552199818193912,standing
1783090395289403400,2.3824033203125,-0.1147503417085856,-0.2810999377511441,0.1329986036479473,-0.0128301428630948,-0.0023162574507296,-0.0594279058277606,standing
1783090395299448600,2.392448486328125,-0.129194900516048,-0.2700955094601959,0.0924310309380292,-0.0043226741254329,0.016128797084093,-0.0629193112254142,standing
1783090395309492200,2.4024921875,-0.0746470985747873,-0.2896344687972217,0.0575116932481527,0.0048649171367287,0.0260183308273553,-0.0699526518583297,standing
1783090395319536400,2.412536376953125,0.0077301558606326,-0.3017004619050771,0.0536988569617271,0.0123231001198291,0.0267507005482912,-0.0733417943120002,standing
1783090395329581600,2.42258154296875,0.0719553752727806,-0.2629327051587403,0.0268909295350313,0.0170565228909254,0.0222448948770761,-0.0701994001865387,standing
1783090395339625500,2.43262548828125,0.098201357967779,-0.2209955976612865,0.0255371768385171,0.0279640313237905,0.0141611360013484,-0.0576593689620494,standing
1783090395349670400,2.44267041015625,0.1015292602814734,-0.1990652131430804,0.0068657941162586,0.0379904173314571,0.0118940640240907,-0.0496707484126091,standing
1783090395359714600,2.452714599609375,0.0779882256962359,-0.1950693484399467,0.0076052143067121,0.0392559505999088,0.0194569081068038,-0.0483093373477458,standing
1783090395369759500,2.462759521484375,0.0303415814455598,-0.1688043687835335,0.0827437496602535,0.0226484425365924,0.0293230470269918,-0.0504966601729393,standing
1783090395379803400,2.472803466796875,0.0023478783003985,-0.1638391475915908,0.1065145013481378,-0.0068338164128363,0.0345404483377933,-0.0461924597620964,standing
1783090395389847600,2.48284765625,-0.0489344190388917,-0.1725529076620936,0.0984375778764486,-0.0303377546370029,0.0309608466923236,-0.0351547934114933,standing
1783090395399892500,2.492892578125,-0.0654039808679372,-0.1474134979695081,0.0502887562572956,-0.0355045534670352,0.014248713850975,-0.0215135533362627,standing
1783090395409936400,2.502936279296875,-0.0155118957780301,-0.1405431007433682,0.0019850363373756,-0.0200377218425273,-0.0073166084475815,-0.0045779729261994,standing
1783090395419981600,2.512981689453125,-0.0075767919298261,-0.1538799905698746,-0.0295516731768846,0.007743309251964,-0.0297683887183666,0.0103897918015718,standing
1783090395430025200,2.523025146484375,0.0249809311952441,-0.1459915754076093,-0.0412479561895132,0.0304561220109462,-0.0470851361751556,0.0210899077355861,standing
1783090395440070400,2.5330703125,0.0482461445137858,-0.1162372192654758,0.0053670799911022,0.0348018668591976,-0.0617295950651168,0.0224782116711139,standing
1783090395450114600,2.543114501953125,0.0698158059608191,-0.1241820407900959,0.022176760494709,0.0244913566857576,-0.0687794387340545,0.0167904961854219,standing
1783090395460159500,2.553159423828125,0.0256387375168502,-0.1514736600805074,0.0457195486456155,0.0128059387207031,-0.0676278918981552,0.0138793941587209,standing
1783090395470203400,2.563203369140625,-0.0472111754428595,-0.1565281669910997,0.0653892947554588,0.0114511894062161,-0.0553089044988155,0.0093695977702736,standing
1783090395480247600,2.57324755859375,-0.0817299695078283,-0.1690581974141299,0.1130021098017692,0.0113068465143442,-0.0456869006156921,0.0044512716121971,standing
1783090395490292500,2.58329248046875,-0.0393842081442475,-0.1893710637331009,0.1484662218928337,-0.0017343824729323,-0.0472220256924629,-0.0029061136301606,standing
1783090395500336400,2.59333642578125,0.0537233338158577,-0.2042442962814122,0.1023486138403415,-0.0231872089207172,-0.0436486005783081,-0.0135824605822563,standing
1783090395510381600,2.603381591796875,0.0734394032854586,-0.1964714703228324,0.0767307729810476,-0.0370635762810707,-0.0394857302308082,-0.0180399864912033,standing
1783090395520425500,2.613425537109375,0.0776967684689909,-0.2063924142260104,0.0565986700564622,-0.0342518091201782,-0.0413704477250576,-0.0193023234605789,standing
1783090395530470400,2.623470458984375,0.0486892121061682,-0.2082745747108012,0.0494639958709478,-0.0106903798878192,-0.0396890416741371,-0.0168491546064615,standing
1783090395540514600,2.6335146484375,0.0099524350199848,-0.21630561321415,-0.0139081138432025,0.0147361494600772,-0.0323568284511566,-0.018734673038125,standing
1783090395550558500,2.643558349609375,-0.0069740037310868,-0.2004020147047936,0.0084977792322635,0.0271544586867094,-0.019800329580903,-0.0235945377498865,standing
1783090395560603400,2.653603271484375,-0.0129623574256896,-0.195878692061454,0.0466495229721069,0.0154088530689477,0.0012788563035428,-0.0329251885414123,standing
1783090395570647600,2.6636474609375,-0.010387100110203,-0.1721191924199462,0.0917179142326116,-0.0101196244359016,0.0245061870664358,-0.0389366745948791,standing
1783090395580692500,2.6736923828125,-0.0051533641751855,-0.1523586262214928,0.1068295586466789,-0.0368977114558219,0.0465659499168396,-0.0440829694271087,standing
1783090395590736400,2.683736328125,0.0105892716187983,-0.1479542537827044,0.104261169463396,-0.0514075346291065,0.0620451942086219,-0.0494487769901752,standing
1783090395600781600,2.693781494140625,0.0246722305722534,-0.1560758931789547,0.0739326666951179,-0.0466886796057224,0.0706197768449783,-0.0464945323765277,standing
1783090395610825500,2.703825439453125,0.0061540656503289,-0.1972913353383541,0.0484486813485622,-0.0297804102301597,0.0783435851335525,-0.0364391654729843,standing
1783090395620869600,2.71386962890625,0.0047281975656747,-0.2111069485925137,0.0391997914880514,-0.0158851016312837,0.0798067227005958,-0.0278872214257717,standing
1783090395630914800,2.723914794921875,0.0420335536092519,-0.1980791247151792,0.0449006334781646,-0.0092987511307001,0.0830503031611442,-0.0192957296967506,standing
1783090395640958500,2.73395849609375,0.0680314798273146,-0.1959201200503856,0.0684498513698577,-0.0085357557982206,0.0790835246443748,-0.0131954941898584,standing
1783090395651003600,2.744003662109375,0.064441492511332,-0.1613951154403388,0.0531388849914073,-0.0127866016700863,0.0707012638449668,-0.0123131889849901,standing
1783090395661047800,2.7540478515625,0.0378315718747675,-0.1825664982847869,0.037087329378724,-0.013179151341319,0.0584185011684894,-0.0065549029968678,standing
1783090395671092500,2.764092529296875,0.0315566563237458,-0.1937918027848005,0.0202811560064554,-0.0086713545024394,0.0413519367575645,0.0022728778421878,standing
1783090395681136600,2.77413671875,0.0394010862138122,-0.2087622851625084,0.010703180322051,0.0042987731285393,0.019466346129775,0.0153135787695646,standing
1783090395691181600,2.784181640625,0.0295085646875202,-0.2057411107104271,-0.0150181209117174,0.0271624997258186,0.0087703689932823,0.0264969244599342,standing
1783090395701225500,2.7942255859375,0.0019839403588324,-0.2021655172459781,0.0056231005787849,0.0397991985082626,0.0034629548899829,0.0307268220931291,standing
1783090395711269600,2.80426953125,-0.0082799717631191,-0.1823039018258452,0.0450783281326293,0.0319015011191368,-0.0012703193351626,0.0279704518616199,standing
1783090395721314600,2.814314453125,-0.0247184808667749,-0.1808043109178543,0.0758154117017984,0.0085237435996532,0.000413597561419,0.0156778320670127,standing
1783090395731358500,2.8243583984375,-0.0235699684187769,-0.1763768498644232,0.0882172126352787,-0.0140752913430333,0.0025523367803543,0.0018187323585152,standing
1783090395741403600,2.834403564453125,0.0070067369569092,-0.1703735908616334,0.0873164644032716,-0.0227875560522079,0.0073036826215684,-0.0117343608289957,standing
1783090395751447600,2.844447509765625,0.0211174607001245,-0.2033243318922817,0.0587608165264129,-0.0149900540709495,0.0088124461472034,-0.0191173702478408,standing
1783090395761492500,2.854492431640625,0.0012198241185396,-0.2361868831828236,0.0253951380193233,-0.0058676609769463,0.0124865435063838,-0.0258466452360153,standing
1783090395771536600,2.86453662109375,0.0036857758406549,-0.2080268835600465,0.0726227531403303,-0.0071391416713595,0.0080951415002346,-0.0275157801806926,standing
1783090395781580800,2.874580810546875,-0.008838628559187,-0.1995623490102589,0.0679068305343389,-0.0134055595844984,-0.0094604156911373,-0.02399268373847,standing
1783090395791625500,2.88462548828125,0.026763649893552,-0.1895113489866256,0.0370113415330648,-0.0228492710739374,-0.0281308479607105,-0.0287518166005611,standing
1783090395801669600,2.894669677734375,0.005930193766579,-0.1864639441147446,-0.0070908350437879,-0.013114352710545,-0.0419846139848232,-0.0313936732709407,standing
1783090395811714600,2.904714599609375,-0.0494400304734706,-0.1685794739864766,-0.0178922150433063,0.0035647703334689,-0.0418484881520271,-0.0349336825311183,standing
1783090395821758500,2.914758544921875,-0.0885481981553137,-0.1652654540676623,0.0286304666787385,0.0107411909848451,-0.0395951867103576,-0.0449684746563434,standing
1783090395831803600,2.9248037109375,-0.0572100799530744,-0.1485039235547184,0.0764981332689523,0.0008828204590827,-0.0354241430759429,-0.0460677556693553,standing
1783090395841847600,2.93484765625,0.0180292123612016,-0.1380633396916091,0.0924643486857414,-0.0064392741769552,-0.0239211525768041,-0.039792813360691,standing
1783090395851892500,2.944892578125,0.0377532459415495,-0.1229767566535621,0.1128524721980094,-0.0101553611457347,-0.0081793600693345,-0.0357313603162765,standing
1783090395861936600,2.9549365234375,0.0252115250807255,-0.1302390027415007,0.1117430496513843,-0.00846185721457,0.0121152587234973,-0.0253341142088174,standing
1783090395871980500,2.96498046875,0.0338408948034048,-0.1549099181395024,0.0970680430889129,-0.0090164123103022,0.0265555288642644,-0.0160862877964973,standing
1783090395882025500,2.975025390625,0.0493039830036461,-0.1561817647062242,0.0882879397839307,-0.0213455166667699,0.0317071452736854,-0.0020674087572842,standing
1783090395892069600,2.985069580078125,0.0897726253837346,-0.1436512228265404,0.0774146635919809,-0.0334342718124389,0.0308187548071146,0.0066461223177611,standing
1783090395902114600,2.995114501953125,0.0741249013315886,-0.1359553345616906,0.0377723890334367,-0.041313499212265,0.0197735615074634,0.0128544829785823,standing
1783090395912158500,3.005158447265625,0.0405729064721614,-0.1131380111411213,0.0023164602488279,-0.0352124124765396,0.0049858642742037,0.0201811678707599,standing
1783090395922203600,3.01520361328125,-0.0465106259580701,-0.1159504382133483,0.000853986480832,-0.0148179261013865,-0.0033823209814727,0.0228022523224353,standing
1783090395932247600,3.02524755859375,-0.0785254013128578,-0.128529130083695,0.0207867674410343,0.0004399293102324,-0.0034843706525862,0.0204107351601123,standing
1783090395942291500,3.03529150390625,-0.0944002121191471,-0.1439782628238201,0.0808387928217649,0.0072970362380146,0.0032526277936995,0.0203872993588447,standing
1783090395952336600,3.045336669921875,-0.0960799088343977,-0.1573217285215854,0.1225374153882265,-0.0006233209278434,0.0054237637668848,0.0212527588009834,standing
1783090395962380500,3.055380615234375,-0.0337367037765681,-0.1732338756635785,0.1158171672224998,-0.0163159966468811,0.011870477348566,0.0215052254498004,standing
1783090395972425700,3.06542578125,0.0115803284827619,-0.148933181817457,0.0825333217799663,-0.0264816097915172,0.0197011511772871,0.0200184527784585,standing
1783090395982469600,3.0754697265625,0.0539682484876364,-0.0992972634457051,0.0879670372664928,-0.0315288305282592,0.0193653255701065,0.0204578749835491,standing
1783090395992514600,3.0855146484375,0.0468636771794408,-0.1021104211702942,0.0511561867415905,-0.0307486969977617,0.0162011198699474,0.0281815752387046,standing
1783090396002558500,3.095558349609375,0.048394905334711,-0.1058409129355102,0.0348310748845338,-0.0243978556245565,0.0106151392683386,0.0380571074783802,standing
1783090396012602600,3.1056025390625,0.0298291018787771,-0.1303261695683002,0.0231920750170946,-0.0090900426730513,0.004922023974359,0.0416877269744873,standing
1783090396022647600,3.1156474609375,0.0177215346515178,-0.1340062463205307,-0.0126852940499782,0.0102335875853896,-0.0006812666542828,0.0369486324489116,standing
1783090396032691500,3.12569140625,0.0396234967928379,-0.135829297029227,-0.0112093762785196,0.030965931713581,-0.0195717550814151,0.0318862311542034,standing
1783090396042736600,3.135736572265625,0.0206254393994808,-0.1241146015770733,-0.0474672690957784,0.0503284446895122,-0.0455650053918361,0.0312678441405296,standing
1783090396052780500,3.145780517578125,-0.0346496539030224,-0.1430569832604378,-0.0497252771556377,0.0550912506878376,-0.0691075026988983,0.0198143851011991,standing
1783090396062825700,3.15582568359375,-0.042475452157855,-0.1840455578614026,-0.0147813895463943,0.0445603132247924,-0.0791758447885513,0.0006596005987375,standing
1783090396072869600,3.16586962890625,-0.0507523551810532,-0.1893442487914115,0.0929372268944978,0.0263873841613531,-0.0811190083622932,-0.0055566821247339,standing
1783090396082913500,3.17591357421875,-0.0516492309555411,-0.1648177103001624,0.1222708734065294,0.0159027855843305,-0.0710911378264427,-0.0051811765879392,standing
1783090396092958700,3.185958740234375,-0.0399916725181043,-0.1532925460707396,0.1423918704152107,0.0146648967638611,-0.0578506663441658,-0.0048684538342058,standing
1783090396103002600,3.196002685546875,-0.0320580299746245,-0.1640738331303,0.1360369484305381,0.0164273753762245,-0.0425662547349929,-0.0063052293844521,standing
1783090396113047600,3.206047607421875,-0.016963994282484,-0.1953625592328608,0.1374310331374406,0.0012874898966401,-0.0277614668011665,-0.0076361442916095,standing
1783090396123091700,3.216091796875,0.0454821596931666,-0.2040426362294703,0.1353776077389717,-0.0265071224421262,-0.024401357397437,-0.0103102251887321,standing
1783090396133136400,3.226136474609375,0.0761835874270647,-0.2101964096188545,0.0895306333214044,-0.0526346415281295,-0.0173929072916507,-0.002587656956166,standing
1783090396143180500,3.2361806640625,0.0572107375402003,-0.2390969984758645,0.0552531006664037,-0.0544618368148803,-0.0129723250865936,0.0167772527784109,standing
1783090396153225700,3.246225830078125,0.003095262601599,-0.2423184447403997,-0.012553192102909,-0.0335054621100425,-0.0145646296441555,0.0361789800226688,standing
1783090396163269600,3.25626953125,0.0058384238298982,-0.2432259149741381,-0.0177530988335609,-0.0008918589446693,-0.0288226623088121,0.0516807064414024,standing
1783090396173313500,3.2663134765625,0.0561968112573027,-0.2230642206288874,-0.0572094954311847,0.0257469862699508,-0.0419276170432567,0.0588702447712421,standing
1783090396183358700,3.276358642578125,0.0703880528908222,-0.1913356418043375,-0.0450917721360921,0.0383911430835723,-0.0502534583210945,0.0562571510672569,standing
1783090396193402600,3.286402587890625,0.0327903628371655,-0.1681219394773244,-0.0049924014598131,0.0328848324716091,-0.0463218353688716,0.0443349108099937,standing
1783090396203447600,3.296447509765625,-0.011906126371026,-0.1345661452256143,0.0518085131704807,0.012204585596919,-0.0355538763105869,0.0281775128096342,standing
1783090396213491700,3.30649169921875,-0.0428510074719786,-0.1137325429681688,0.1140156707584857,-0.0192859154194593,-0.0206033084541559,0.0165221206843853,standing
1783090396223536400,3.316536376953125,-0.0648929626058787,-0.1276309391349554,0.1437432850241661,-0.0410359501838684,-0.0087290722876787,0.010868496261537,standing
1783090396233580500,3.32658056640625,-0.0463038513395935,-0.1213319851212203,0.1357365041792392,-0.0410688370466232,-0.0041359565220773,0.0106927938759326,standing
1783090396243624700,3.336624755859375,-0.0513578467935323,-0.1526028102409094,0.0988502503305673,-0.021031480282545,0.0013064797967672,0.0166164617985487,standing
1783090396253669400,3.34666943359375,-0.067629621028155,-0.2030176770959049,0.0441635513752698,0.0002459241077303,0.0057757934555411,0.0166629366576671,standing
1783090396263713500,3.356713623046875,-0.0284918619256466,-0.2298231933698058,0.0551303510695695,0.0139659978449344,0.0132965603843331,0.0163303092122077,standing
1783090396273758700,3.3667587890625,0.0135187491994351,-0.2164548124264925,0.0745844086021184,0.0072498619556427,0.0164364669471979,0.0093735987320542,standing
1783090396283802600,3.376802734375,0.0525718256931751,-0.1716997248988598,0.0676093088924884,-0.0078422715887427,0.0186708588153123,0.0040267705917358,standing
1783090396293847600,3.38684765625,0.0811004394326359,-0.1283592534095048,0.0603138911873102,-0.0227684006094932,0.019780371338129,0.0024749457370489,standing
1783090396303891700,3.3968916015625,0.0407207905102521,-0.1352077310647815,0.049890696850419,-0.0297581329941749,0.0164370387792587,0.0031841455493122,standing
1783090396313935600,3.406935546875,-0.0068648442681878,-0.1401012752600014,0.0349637613534927,-0.0206678286194801,0.0152681395411491,0.0015943044563755,standing
1783090396323980500,3.41698046875,-0.0272279794696718,-0.1784674654681235,0.0153735102206468,-0.0096119828522205,0.0158292669802904,-0.0004206432495266,standing
1783090396334024700,3.427024658203125,-0.0449897000011056,-0.1826528613939881,0.022704583761096,-0.0008809033315628,0.0195308309048414,-0.004274102859199,standing
1783090396344069400,3.4370693359375,-0.0142223674241453,-0.1836262364707887,0.0783405462652444,0.0008866367861628,0.02726811170578,-0.0073114377446472,standing
1783090396354113500,3.447113525390625,0.038164457090944,-0.2024081668954342,0.094714173439145,-0.0066512506455183,0.0400293692946434,-0.0065772095695137,standing
1783090396364158700,3.45715869140625,0.0404937037561088,-0.1751712734669447,0.0741436790972948,-0.0161733832210302,0.0483669340610504,-0.0039236359298229,standing
1783090396374202400,3.467202392578125,0.0398589860491454,-0.1491864259261638,0.0547574261039495,-0.0210734289139509,0.0503861792385578,-0.0025778035633265,standing
1783090396384246500,3.47724658203125,0.0574366552505642,-0.1360737733095884,0.0312654913574457,-0.0153782591223716,0.0408368818461895,0.0008006824646145,standing
1783090396394291700,3.487291748046875,0.031777824793756,-0.1329297761954367,0.0150789111882448,0.0025030004326254,0.0212206467986106,-0.0002063906285911,standing
1783090396404335600,3.497335693359375,0.0009363310020416,-0.1268048635743558,-0.0086263740479946,0.0154393054544925,0.002554815961048,-0.002524139592424,standing
1783090396414380500,3.507380615234375,-0.0275599879030138,-0.1379066878251731,0.0130301619648933,0.0144694726914167,-0.0180721264332532,-0.0077684381976723,standing
1783090396424424700,3.5174248046875,-0.0203477915018796,-0.159175393564254,0.0706038145333528,0.0002947978209704,-0.0349397882819175,-0.0091916313394904,standing
1783090396434469600,3.5274697265625,-0.0375989321626722,-0.1985802791703492,0.0742728584349155,-0.0118247149512171,-0.051733948290348,-0.0084888227283954,standing
1783090396444513500,3.537513427734375,-0.0700084059234708,-0.2126220293305814,0.0525952796339988,-0.0059897294268012,-0.0632047206163406,-0.0083458106964826,standing
1783090396454558700,3.547558837890625,-0.1076444552261382,-0.2543404525760561,0.006574117693305,0.0095891430974006,-0.064847208559513,-0.0064348597079515,standing
1783090396464602400,3.557602294921875,-0.0659016281917691,-0.2428465602677315,0.0439373414039611,0.0192415043711662,-0.0584625415503978,-0.0025940490886569,standing
1783090396474646500,3.567646484375,0.0047224984772503,-0.235829009655863,0.09037819006145,0.012116172350943,-0.0440044291317462,0.0028461893089115,standing
1783090396484691700,3.577691650390625,0.0222630505386739,-0.215407641461119,0.0903209069162607,-0.0082729887217283,-0.024389449506998,-0.0027166213840246,standing
1783090396494735400,3.5877353515625,0.0433536962971091,-0.1802630436480045,0.0852408271729946,-0.0178704895079135,-0.0015613650903105,-0.0071854060515761,standing
1783090396504780500,3.597780517578125,0.0506778286401182,-0.1737933361772447,0.0687993954598903,-0.0161812454462051,0.012875897809863,-0.015013501048088,standing
1783090396514824700,3.60782470703125,0.0684985858824104,-0.156066979220137,0.0475409188538789,-0.0122218802571296,0.0125599708408117,-0.0180268008261919,standing
1783090396524869600,3.61786962890625,0.0415622097704559,-0.1300506405625492,0.02273439437747,-0.0069661317393183,0.0092850821092724,-0.0167628657072782,standing
1783090396534913500,3.62791357421875,0.012449220271781,-0.1283764968052506,0.026022330006957,-0.0066950256004929,-0.001852183137089,-0.020319115370512,standing
1783090396544957700,3.637957763671875,-0.0138490771323442,-0.1366039346635341,0.0088221888810396,-0.0086202248930931,-0.0101575162261724,-0.0247167944908142,standing
1783090396555002600,3.648002685546875,-0.0294859144642949,-0.1444777367785573,0.0137824416369199,-0.0121590364724397,-0.0199807789176702,-0.0303108971565961,standing
1783090396565046500,3.658046630859375,-0.0316870777703821,-0.1279177201870829,0.0432224711328744,-0.0053605185821652,-0.0270408205687999,-0.0352009944617748,standing
1783090396575091700,3.668091796875,-0.0321636823061853,-0.1466706437129527,0.0333832141637802,0.0102516496554017,-0.0233949478715658,-0.0384901314973831,standing
1783090396585135600,3.678135498046875,-0.027407573820278,-0.1350510791983455,0.0559720625907182,0.0261717606335878,-0.0162070766091346,-0.0375460386276245,standing
1783090396595180500,3.6881806640625,-0.0150824183195829,-0.1461009540662169,0.0792313576251268,0.0307271368801593,-0.0052529629319906,-0.0386904664337635,standing
1783090396605224400,3.698224365234375,-0.0130636989083141,-0.1642027932722121,0.0967535703122615,0.017608406022191,0.0095954909920692,-0.0440687201917171,standing
1783090396615268400,3.708268310546875,-0.0354656464610248,-0.1592166754227131,0.1168488483577966,-0.0010033207945525,0.0297580156475305,-0.0546244941651821,standing
1783090396625313300,3.718313232421875,-0.0379001801315695,-0.1602289942704141,0.1469482185453176,-0.0254865605384111,0.0478278286755085,-0.0602578781545162,standing
1783090396635357400,3.728357421875,-0.0353689080882817,-0.1850319385502487,0.1498597220778465,-0.0428851135075092,0.0576136969029903,-0.0617760755121707,standing
1783090396645402400,3.73840234375,-0.0046768327046185,-0.1932434481870382,0.0989583868801593,-0.0534392222762107,0.057319950312376,-0.0603747256100177,standing
1783090396655446300,3.7484462890625,0.0418927568990737,-0.2112836203336715,0.0417681806713342,-0.0545842163264751,0.0439404062926769,-0.0564474947750568,standing
1783090396665491500,3.758491455078125,0.0557456334237009,-0.2046834183510393,-0.0332832609206438,-0.0577216856181621,0.0241541881114244,-0.0536948516964912,standing
1783090396675535400,3.768535400390625,0.0557292668107897,-0.192489926405996,-0.071666475328803,-0.067023254930973,0.0080683212727308,-0.0515187159180641,standing
1783090396685579300,3.778579345703125,0.0422178241349756,-0.1743655100420117,-0.0134627081632614,-0.0722052305936813,-0.0024221367202699,-0.0452024973928928,standing
1783090396695624400,3.78862451171875,-0.0084192341033369,-0.1544876010742038,0.0365846405535936,-0.0671235173940658,-0.0044144089333713,-0.0367307811975479,standing
1783090396705668400,3.79866845703125,-0.0261027748320251,-0.1393887430764734,0.0340577524244785,-0.0571262836456298,-0.0031462120823562,-0.0338665544986724,standing
1783090396715713300,3.80871337890625,0.0090699530970305,-0.1379229083076119,0.0431494058966636,-0.0466275177896022,-0.0040236101485788,-0.0367319136857986,standing
1783090396725757400,3.81875732421875,0.0109552553869783,-0.1456423235785216,0.0282382524907588,-0.0327793471515178,-0.0098490081727504,-0.03594521433115,standing
1783090396735802400,3.82880224609375,0.0129612614471465,-0.13849062519297,0.001225157880783,-0.0155904218554496,-0.0077556488104164,-0.0304653625935316,standing
1783090396745846300,3.83884619140625,-0.0089021222494542,-0.137518857551366,0.0129191028058528,3.2480340451e-05,0.0006106714718043,-0.0203389599919319,standing
1783090396755890400,3.848890380859375,0.0072629767403006,-0.1723733863767236,0.0596937134623527,0.0011197924613952,0.0138546787202358,-0.0163480099290609,standing
1783090396765935400,3.858935302734375,0.0320016236122697,-0.2000380767632275,0.1136152732640504,-0.0048755155876278,0.0250543355941772,-0.0117993298918008,standing
1783090396775979300,3.868979248046875,0.0172412768539041,-0.1677024719562381,0.126682260107994,-0.006467985920608,0.0219547655433416,-0.0027292720042169,standing
1783090396786024400,3.8790244140625,0.0131778998725116,-0.1870430591769516,0.0710159024655818,-0.0075409733690321,0.01596025750041,0.0027408609166741,standing
1783090396796068400,3.889068359375,0.0131431938853114,-0.2025183492716401,0.043972997239232,-0.0190753061324358,0.0193330738693475,0.006747854873538,standing
1783090396806113300,3.89911328125,0.0191392924949526,-0.2040980196785181,0.0458610029429197,-0.0295031797140836,0.0212942250072956,0.0144728869199752,standing
1783090396816157400,3.909157470703125,-0.010678557337448,-0.1508991481281817,0.0626449644833803,-0.0357939228415489,0.0253812652081251,0.0150855462998151,standing
1783090396826201300,3.919201416015625,0.0070938307184726,-0.1689689116954803,0.0555301640421152,-0.030956819653511,0.0288300588726997,0.0154874166473746,standing
1783090396836246300,3.929246337890625,0.010799188042432,-0.1939328917559236,0.0516951159238815,-0.0243339799344539,0.0368747077882289,0.0076681086793541,standing
1783090396846290400,3.93929052734375,0.0048033816937357,-0.1769634906459599,0.0416010074108839,-0.0144536532461643,0.039370622485876,-0.0002318921033293,standing
1783090396856335400,3.94933544921875,-0.0200721163656562,-0.1694544301901012,0.0267062206178903,-0.0074645914137363,0.0495610535144805,-0.0055791856721043,standing
1783090396866379300,3.959379150390625,-0.0769005765900015,-0.1795616173803806,0.0402963545531034,0.0050935447216033,0.0550964325666427,-0.0136248609051108,standing
1783090396876424200,3.969424072265625,-0.0746123925875872,-0.2127045930474996,-0.0009533552020788,0.0224520731717348,0.0586357004940509,-0.0203311666846275,standing
1783090396886468400,3.97946826171875,-0.0163126907669007,-0.1377124073620885,0.0483954898566007,0.0372789539396762,0.0573920011520385,-0.0254478994756937,standing
1783090396896512300,3.98951220703125,-0.0212291774462908,-0.1344531863704323,0.049323710617423,0.0189510807394981,0.0501676462590694,-0.034394521266222,standing
1783090396906556400,3.999556396484375,0.0414164446242153,-0.1347822721943259,0.1101075574040412,-0.0240704212337732,0.0421422086656093,-0.045242641121149,standing
1783090396916601300,4.009601318359375,0.0447404744803905,-0.1510791808702051,0.0893862564146518,-0.0617305412888526,0.0356427244842052,-0.049556165933609,standing
1783090396926645200,4.019645263671875,0.0475182686306536,-0.1525453809652477,0.0622527502954006,-0.0800741240382194,0.0244217626750469,-0.056342963129282,standing
1783090396936690400,4.0296904296875,0.0587657849624752,-0.1681118564747273,0.0420253703027963,-0.0859281569719314,0.0121502904221415,-0.055921584367752,standing
1783090396946734300,4.039734375,0.0290760184891521,-0.1712344454746693,0.028407763838768,-0.0788372233510017,0.0018787449225783,-0.0518322996795177,standing
1783090396956778200,4.0497783203125,-0.0495375725638121,-0.2021099876664578,0.0071750061959028,-0.0636662915349006,-0.0107517819851636,-0.0430809557437896,standing
1783090396966823400,4.059823486328125,-0.0926918738313019,-0.2449853989273309,-0.0232686473846435,-0.0432462394237518,-0.0239080637693405,-0.0391429364681243,standing
1783090396976867300,4.069867431640625,-0.106723906315118,-0.2608773800641298,-0.0496498738318681,-0.0145145952701568,-0.0331201665103435,-0.0342190861701965,standing
1783090396986912300,4.079912353515625,-0.1253237581711262,-0.2406406477212905,-0.056962827193737,0.0103297680616378,-0.0472895130515098,-0.0312808230519294,standing
1783090396996956400,4.089956298828125,-0.0778143304340541,-0.2106466376043856,-0.0554331334084272,0.0241133607923984,-0.0748042687773704,-0.0318434797227382,standing
1783090397007001300,4.10000146484375,0.0418583431728184,-0.1659247947592288,-0.0383832144081592,0.0299683213233947,-0.0982712432742118,-0.0305723566561937,standing
1783090397017045200,4.110045166015625,0.1141916118472814,-0.1222944734778255,0.0333399595439434,0.0192450061440467,-0.1118048578500747,-0.0381457172334194,standing
1783090397027089400,4.12008935546875,0.139231579753384,-0.1285880206640809,0.082944240668416,0.0030942659359425,-0.1131662651896476,-0.0448068156838417,standing
1783090397037134300,4.13013427734375,0.1116453614305704,-0.1440382493827492,0.1343938573986292,-0.0066158790141344,-0.1004146710038185,-0.0426792167127132,standing
1783090397047178200,4.14017822265625,0.0818408825363963,-0.1107793922509998,0.1465963363677263,-0.0163100510835647,-0.0743069052696228,-0.0360056012868881,standing
1783090397057223400,4.150223388671875,0.0676644000805914,-0.1187993979036808,0.1721551405161619,-0.0290868319571018,-0.0452265180647373,-0.0293122790753841,standing
1783090397067267300,4.160267333984375,0.0444572736248373,-0.1321623720195144,0.1561748965740203,-0.0351628363132476,-0.0156358666718006,-0.0146422581747174,standing
1783090397077312300,4.170312255859375,0.0364848334409296,-0.1696951070781797,0.1423895323276519,-0.0397303849458694,0.0120722688734531,-0.0029754124116152,standing
1783090397087356400,4.1803564453125,-0.0265057296097278,-0.2075499867632985,0.09037819006145,-0.0409349352121353,0.030965531244874,0.0046822410076856,standing
1783090397097400300,4.190400390625,-0.0842770236421376,-0.2487996965184807,0.0461421579718589,-0.0399481430649757,0.036429651081562,0.0053827855736017,standing
1783090397107445200,4.2004453125,-0.0095045451220124,-0.2768539707444608,0.0113964232832193,-0.0238906145095825,0.0295011736452579,0.0029606407042592,standing
1783090397117489400,4.210489501953125,0.0959866775929927,-0.2222068731471896,-0.0074573302686214,0.002429271582514,0.0184956956654787,-0.0047785718925297,standing
1783090397127534300,4.220534423828125,0.1410824683170765,-0.1475108939293772,-0.0035796120524406,0.0225158967077732,0.0042136963456869,-0.0235256291925907,standing
1783090397137578200,4.230578125,0.1053561250932514,-0.1021197735205292,0.0124164139807224,0.022263791412115,-0.0055071422830224,-0.039647739380598,standing
1783090397147623400,4.24062353515625,0.0709743283461779,-0.1011696331888437,0.0224760357022285,0.0005800663493573,-0.0145219434052705,-0.0451008304953575,standing
1783090397157667300,4.250667236328125,0.0498387474674731,-0.1135072828449308,0.0438373881608247,-0.0208740532398223,-0.0219705402851104,-0.0438801012933254,standing
1783090397167711200,4.260711181640625,0.008318769403547,-0.1108915473885834,0.0610562339872121,-0.0253833178430795,-0.0301453806459903,-0.0368363037705421,standing
1783090397177756400,4.27075634765625,-0.0253065829530358,-0.1376190299902111,0.0531038136780262,-0.0158815998584032,-0.0324841290712356,-0.032734241336584,standing
1783090397187800300,4.28080029296875,0.0038100598074495,-0.1522409911911934,0.0627016631066799,-0.0028592746239155,-0.0212711542844772,-0.0327909663319587,standing
1783090397197845200,4.29084521484375,0.0692098028916865,-0.1269590312227606,0.0872527515172958,-0.001082147238776,-0.0016875993460416,-0.0338546335697174,standing
1783090397207889400,4.300889404296875,0.0768791684757918,-0.1320421797059476,0.1114706624507904,-0.0163233671337366,0.0124271921813488,-0.0447612777352333,standing
1783090397217934300,4.310934326171875,0.0952408276617527,-0.1157116610214114,0.0901110635578632,-0.0314765349030494,0.019141973927617,-0.0557459518313407,standing
1783090397227978200,4.320978271484375,0.0883117590509355,-0.1121809296119958,0.0552156912654638,-0.0339924246072769,0.0150135420262813,-0.0574607625603675,standing
1783090397238022400,4.3310224609375,0.0575813974834978,-0.0937778424371033,0.0488280360549688,-0.0165584962815046,-0.0047197416424751,-0.0549557916820049,standing
1783090397248067300,4.3410673828125,-0.0001003916345536,-0.1296882369909435,0.0047480713099241,0.0034239997621625,-0.0216076448559761,-0.0526484288275241,standing
1783090397258111200,4.351111328125,-0.0828067318938672,-0.186238099469617,-0.0059463411837816,0.0097105763852596,-0.0320776551961898,-0.0561225228011608,standing
1783090397268156400,4.361156494140625,-0.0876025878682732,-0.2192067414831369,0.0335094708919525,-0.0017346248496323,-0.0394101366400718,-0.0619143657386302,standing
1783090397278200300,4.371200439453125,-0.0692807492360472,-0.262880974971503,0.0690004709899425,-0.0186287835240364,-0.0367473550140857,-0.068229854106903,standing
1783090397288245500,4.38124560546875,-0.048174832843244,-0.2414314327728003,0.1060316862672567,-0.0284814126789569,-0.028906475752592,-0.0671789646148681,standing
1783090397298289400,4.391289306640625,-0.0428612366050481,-0.2017875507790595,0.120781511631608,-0.0289706885814666,-0.0231034159660339,-0.0637937560677528,standing
1783090397308334300,4.401334228515625,0.0210454914424568,-0.147000679384917,0.1063175174713134,-0.03555828332901,-0.0042511653155088,-0.058761179447174,standing
1783090397318378500,4.41137841796875,0.1240031040266156,-0.1322241852093487,0.1096054531008005,-0.0435120314359664,0.0091933878138661,-0.049210350960493,standing
1783090397328422400,4.42142236328125,0.1558146118942648,-0.1236419425640255,0.0742401252090931,-0.0429586321115493,0.0229544751346111,-0.0397665165364742,standing
1783090397338467300,4.43146728515625,0.1173956685855984,-0.1360145174030214,0.0381792162686586,-0.0337890498340129,0.0334170833230018,-0.0229665637016296,standing
1783090397348511200,4.44151123046875,0.0791561734970659,-0.1772474952191114,0.0046340895414352,-0.0158366840332746,0.040517870336771,-0.0015259869396686,standing
1783090397358556200,4.45155615234375,0.0579961157642304,-0.205077386104688,-0.0015595044016838,0.0012929474469274,0.0385004132986068,0.0251835212111473,standing
1783090397368600300,4.461600341796875,0.0696384766325354,-0.2103100260611623,-0.0026461305946111,0.0043763555586338,0.0233257208019495,0.0413883253931999,standing
1783090397378645500,4.4716455078125,0.0738718764185905,-0.184084501632303,0.0061865796804428,-0.0028310923371464,0.0011315071024,0.048334315419197,standing
1783090397388689200,4.481689208984375,0.0326205592282116,-0.1772031446207314,0.0137923785090446,-0.0103009929880499,-0.0159223116934299,0.0468256324529647,standing
1783090397398733300,4.4917333984375,-0.0248320242438465,-0.1624672747164964,0.0246563023507595,-0.0122280968353152,-0.0228393375873565,0.0389454029500484,standing
1783090397408778500,4.501778564453125,-0.0688219726178795,-0.1508494637675583,0.038219548279047,-0.0040055867284536,-0.0186597723513841,0.0326017551124095,standing
1783090397418822400,4.511822509765625,-0.1565548358023166,-0.1489481601908802,0.0414390948474407,0.0063131442293524,0.0030959711875766,0.0236028674989938,standing
1783090397428867300,4.521867431640625,-0.144473133668676,-0.1551971375830471,0.1135457151591777,0.0127143179997801,0.0231474433094263,0.0131321167573332,standing
1783090397438911500,4.531911376953125,-0.0198550395488739,-0.1260484922491014,0.1349982530325651,0.0138156581670045,0.0354107581079006,0.0104498481377959,standing
1783090397448956200,4.5419560546875,0.0110826080936938,-0.1477741479754447,0.0608621727198362,0.019905773922801,0.0483350791037082,0.0016470359405502,standing
1783090397459000300,4.552000244140625,-0.022595424298197,-0.1776603868689387,0.0157873517185449,0.0169680919498205,0.0582660511136055,-0.0120332892984151,standing
1783090397469044500,4.56204443359375,0.0412380923826247,-0.1560037047255784,0.020494506496191,0.0057085123844444,0.0568625666201114,-0.0182855930179357,standing
1783090397479089200,4.572089111328125,0.1284347297985106,-0.1453526929821819,0.0233177472233772,-0.006495872978121,0.0485553592443466,-0.009615272283554,standing
1783090397489133300,4.58213330078125,0.1325714642770588,-0.1347681706037372,0.0206260239213705,-0.0126078277826309,0.0303627736866474,0.000482901232317,standing
1783090397499178500,4.592178466796875,0.08108801834248,-0.1362000300377607,0.013090367719531,-0.0149513166397809,0.016691405326128,-0.0012794444337487,standing
1783090397509222100,4.60222216796875,0.0237901870407164,-0.153413980493322,0.0519078818917274,-0.0175694711506366,0.0026749218814074,-0.0011867666617035,standing
1783090397519267300,4.612267333984375,-0.0359407896921038,-0.1643989734314382,0.0869739345759153,-0.016523964703083,-0.0077952723950147,-0.0009803078137338,standing
1783090397529311500,4.6223115234375,-0.0562068942598998,-0.170711371448636,0.04802373393476,0.0024188347160816,-0.0088123334571719,0.0058826580643653,standing
1783090397539355400,4.63235546875,-0.06748509799093,-0.18911153601408,0.0433639254301786,0.027648689225316,-0.0030058091506361,0.0099636185914278,standing
1783090397549400300,4.642400390625,-0.052001332328841,-0.1709822973445058,0.0906260273426771,0.0337965935468673,0.0079557616263628,0.0116872172802686,standing
1783090397559444500,4.652444580078125,0.0149662445940077,-0.1624818146985024,0.0979915876746177,0.0207732580602169,0.0156191792339086,0.0077378191053867,standing
1783090397569489200,4.6624892578125,0.0861285697929561,-0.1304752957154065,0.1014595560461282,-0.0015094092814251,0.0174903161823749,0.0064357994124293,standing
1783090397579533300,4.672533203125,0.0947492447525262,-0.1093766858462244,0.051895606932044,-0.0167311541736125,0.02357635833323,-0.0009957514703273,standing
1783090397589578500,4.68257861328125,0.0550032906237989,-0.1390163295675069,0.0377507617235183,-0.0237762797623872,0.0340785309672355,-0.0067481799051165,standing
1783090397599622400,4.692622314453125,0.0140293290700763,-0.1472765006516128,0.0271001883715391,-0.0158099606633186,0.0303329173475503,-0.0070475190877914,standing
1783090397609666300,4.702666259765625,-0.0290896816883236,-0.1389870304077863,0.0066179568350315,-0.0042917886748909,0.0203042514622211,-0.0015904356259852,standing
1783090397619711500,4.71271142578125,-0.0082975804850459,-0.1641257825132459,-0.0028390228182077,0.0035894382745027,0.0024895314127206,0.0067642331123352,standing
1783090397629755400,4.72275537109375,0.0153251410342752,-0.1841698418281972,-0.0134545248568058,0.0088007124140858,-0.0123565271496772,0.0153068546205759,standing
1783090397639800600,4.732800537109375,-0.0541940200675278,-0.2120235519807785,0.0162941321969032,0.0167115367949008,-0.0215480532497167,0.024254010990262,standing
1783090397649844500,4.742844482421875,-0.0199196292176842,-0.2106041867021471,0.0438081620663404,0.0253681391477584,-0.0307788345962762,0.0288359802216291,standing
1783090397659889400,4.752889404296875,0.0196380357973277,-0.1734633005052804,0.0601741904556751,0.0241358987987041,-0.046199943870306,0.0264656320214271,standing
1783090397669933600,4.76293359375,0.0246085907515138,-0.1221431553736329,0.0588157615840435,0.0083361631259322,-0.0493190363049507,0.0120062669739127,standing
1783090397679977500,4.7729775390625,0.0133721803355962,-0.1154693766981363,0.0974246014416217,-0.0224599298089742,-0.0457627475261688,-0.0018241989891976,standing
1783090397690022400,4.7830224609375,8.60708482563e-05,-0.111546796426922,0.1072492453634738,-0.0440352633595466,-0.0504475161433219,-0.0040175784379243,standing
1783090397700066600,4.793066650390625,-0.0241493757419288,-0.1516403218843042,0.0592956540554761,-0.0379284918308258,-0.0585265345871448,0.0083246463909745,standing
1783090397710111500,4.803111572265625,-0.030359336297959,-0.1950692753747105,0.0108650928854942,-0.0095202857628464,-0.0655937641859054,0.0248972326517105,standing
1783090397720155400,4.8131552734375,-0.0466364442948251,-0.2247176869243383,-0.0344125572115182,0.0188460610806942,-0.0686376094818115,0.0383774191141128,standing
1783090397730199600,4.823199462890625,0.0295340644549578,-0.2407913813035935,-0.0335673385590314,0.0416224785149097,-0.0626953020691871,0.0485472343862056,standing
1783090397740244500,4.833244384765625,0.1150607958972454,-0.2039384452026337,0.0320119258105754,0.0510957092046737,-0.0611955113708972,0.0517600700259208,standing
1783090397750288400,4.843288330078125,0.1524883900810033,-0.1094612953897565,0.0505143817067146,0.0474884584546089,-0.0527807213366031,0.0454856641590595,standing
1783090397760333600,4.85333349609375,0.1457031869202852,-0.0662559215221554,0.0778325967431068,0.0271686110645532,-0.040259126573801,0.0357278399169445,standing
1783090397770377500,4.86337744140625,0.0818526460394263,-0.0728526894386857,0.1054857428222894,-0.0002949708141386,-0.0195192284882068,0.0272664427757263,standing
1783090397780422400,4.87342236328125,-0.0492003034334629,-0.1387458420630544,0.1395978557825088,-0.0213092137128114,-0.0096267880871891,0.024650489911437,standing
1783090397790466600,4.883466552734375,-0.1245796618055552,-0.1952419285278767,0.101051559767127,-0.0251526869833469,-0.0063055604696273,0.0234901495277881,standing
1783090397800510500,4.893510498046875,-0.0866040783502161,-0.2349584373664111,0.0389285733312368,-0.01661211065948,-0.0042430227622389,0.018740402534604,standing
1783090397810555400,4.903555419921875,-0.0216841546721756,-0.2242712583310902,0.0294365223646163,-0.0075459112413227,-0.0056859226897358,0.020797960460186,standing
1783090397820599600,4.913599609375,0.050465647194162,-0.2012528593804687,0.0287374341845512,-0.002380175050348,-4.7284644097e-05,0.0229483302682638,standing
1783090397830644500,4.92364453125,0.1028928037196397,-0.1791534749709069,0.030796704801917,0.0110972840338945,0.0105608850717544,0.0220633614808321,standing
1783090397840688400,4.9336884765625,0.064613049685955,-0.1423223853755742,0.028096213671565,0.0340094380080699,0.0174370519816875,0.0190717000514268,standing
1783090397850733600,4.943733642578125,0.0181190095365047,-0.1541880336057394,0.0505401006698608,0.0431789681315422,0.0252467729151248,0.0077524664811789,standing
1783090397860777500,4.953777587890625,0.0040426995195448,-0.1673851496353745,0.0997194343805313,0.0204094238579273,0.02366953343153,-0.0091129997745156,standing
1783090397870821400,4.9638212890625,-0.0537853662014007,-0.165325294496119,0.1053974800169467,-0.0175992101430892,0.0228080004453659,-0.0223949830979108,standing
1783090397880866600,4.973866455078125,-0.0702525899428874,-0.2128491160847246,0.0950870984047651,-0.0435177162289619,0.0226369854062795,-0.0266291424632072,standing
1783090397890910500,4.983910400390625,-0.1163593112751841,-0.2429272973537445,0.0517336943686008,-0.0419320687651634,0.0237946603447198,-0.0225521102547645,standing
1783090397900955400,4.993955322265625,-0.0719837245844304,-0.2269749643318355,0.0259235458076,-0.018140098080039,0.026519913226366,-0.0163312312215566,standing
1783090397910999600,5.00399951171875,0.0484626368086785,-0.2116444164700806,0.0010568155765533,0.0078888395801186,0.0298808217048645,-0.0118709690868854,standing
1783090397921044200,5.014044189453125,0.1362682729683816,-0.1585778660625219,0.0215156662374734,0.0208470690995454,0.0334666185081005,-0.0081900814548134,standing
1783090397931088400,5.02408837890625,0.1472827111966907,-0.114534580066055,0.0518067596048116,0.0143430987372994,0.0388872139155864,-0.0049524763599038,standing
1783090397941132500,5.034132568359375,0.1345025784701108,-0.1143831888966262,0.0466442622750997,0.0033561834134161,0.0356563441455364,0.0009098736336454,standing
1783090397951177500,5.044177490234375,0.0667551762811839,-0.1409076962720602,0.0398889427959918,-0.0029728189110755,0.0411778762936592,0.0083856331184506,standing
1783090397961221400,5.054221435546875,0.0020063713863492,-0.1575176164198666,0.0467851320505142,-0.00369687913917,0.0461749993264675,0.0070372060872614,standing
1783090397971266600,5.0642666015625,-0.0794163588032126,-0.1924850310351699,0.0604249503463506,-0.006493464577943,0.04483063519001,0.0017857186030596,standing
1783090397981310500,5.074310546875,-0.1015378819793462,-0.2013210292458534,0.0558908140480518,-0.0085568036884069,0.0403454042971134,0.001359081827104,standing
1783090397991355400,5.08435546875,-0.0322311945844441,-0.1839038113031536,0.0520639492362737,-0.021216407418251,0.0263907108455896,-0.0061880503781139,standing
1783090398001399600,5.094399658203125,0.0510110061172395,-0.1744135869674384,0.0444680872797966,-0.0363266095519065,0.0133237754926085,-0.0147344730794429,standing
1783090398011443500,5.104443359375,0.061543798308447,-0.1384079153455794,0.0235690916359424,-0.0379910841584205,-0.0021286839619278,-0.0147794801741838,standing
1783090398021488400,5.11448828125,0.0492475035760551,-0.1163319848768413,0.0085866265594959,-0.0203265994787216,-0.0160409808158874,-0.0084631219506263,standing
1783090398031532500,5.124532470703125,0.0212128108333796,-0.128931500339508,0.0155102883428335,0.0108776595443487,-0.0189819075167179,-0.007663108408451,standing
1783090398041577200,5.1345771484375,-0.0266715146306902,-0.152633862966299,0.0428016153723001,0.0383709780871868,-0.0254448410123586,-0.0031127010006457,standing
1783090398051621400,5.144621337890625,-0.0166566818989813,-0.2058374837569892,0.0579179359614849,0.0524702854454517,-0.023556925356388,0.0039566601626574,standing
1783090398061666600,5.15466650390625,0.0598317336935549,-0.2182269366655498,0.0936129341989755,0.0442035198211669,-0.0184094905853271,0.0056202709674835,standing
1783090398071710500,5.16471044921875,0.0863503958500921,-0.2108080387111753,0.1047094977527856,0.0119627602398395,-0.0145721407607197,0.0077164452522993,standing
1783090398081754400,5.17475439453125,0.0872314895335584,-0.1899398035317659,0.0996200656592845,-0.0202214457094669,-0.0044889817945659,0.0114278281107544,standing
1783090398091799600,5.184799560546875,0.0693828944362699,-0.1823744097787887,0.0677040014386177,-0.0315646454691886,0.0018227105028927,0.0174401812255382,standing
1783090398101843500,5.194843505859375,0.0636377018477767,-0.1862074120704084,0.0300198752105236,-0.022064846009016,0.0069053485058248,0.0272418782114982,standing
1783090398111888400,5.204888427734375,0.036099925776571,-0.1625325950376689,0.0291688113391399,-0.0120516251772642,0.0094153778627514,0.0297833327203989,standing
1783090398121932500,5.2149326171875,0.0083258567314594,-0.1459975667569786,0.0542927312016487,-0.0162971038371324,0.0173210073262453,0.0283331740647554,standing
1783090398131976400,5.2249765625,-0.0623058687221258,-0.1702322096295654,0.0519482139021158,-0.0153194582089781,0.0253799986094236,0.0285464935004711,standing
1783090398142021400,5.235021484375,-0.0884527018915861,-0.1862752896748483,0.0631838936656713,-0.0094399889931082,0.0303937140852212,0.0293224062770605,standing
1783090398152065500,5.2450654296875,-0.0900887786608189,-0.1696586475253105,0.0499234300762414,0.0060196602717041,0.0312147662043571,0.0263220891356468,standing
1783090398162110500,5.2551103515625,-0.0225239664971828,-0.1651518376253545,0.0454863244116306,0.0169900581240654,0.0313416048884391,0.0267573166638612,standing
1783090398172154400,5.265154296875,0.0618362784489989,-0.161918847053498,0.0500537784576416,0.0181839540600776,0.0245289709419012,0.0268305521458387,standing
1783090398182199600,5.275199462890625,0.1013753118287771,-0.1630079574644565,0.0181850605100393,0.0164012722671031,0.0169835686683654,0.0296843238174915,standing
1783090398192243500,5.285243408203125,0.0755631174411624,-0.1625607982188463,0.0308773688226938,0.0032002485822886,0.0069573000073432,0.0298078954219818,standing
1783090398202287400,5.295287353515625,0.0933231574721634,-0.1585522201646119,0.03549100009799,-0.013716323301196,-0.0009800819680094,0.0244999527931213,standing
1783090398212332500,5.30533251953125,0.0482795353267341,-0.1407584970597177,0.0115624274998903,-0.0265471674501895,-0.0052765593864023,0.0214413125067949,standing
1783090398222376400,5.31537646484375,0.0154166187100112,-0.1342312141828238,0.0370978507727384,-0.0190066862851381,-0.0058559421449899,0.0184638984501361,standing
1783090398232421400,5.32542138671875,-0.0452354183904826,-0.1148999062471091,0.0251946470111608,-0.0090110450983047,-0.0048990687355399,0.0136470403522253,standing
1783090398242465500,5.335465576171875,-0.0571165564507245,-0.1540674029007554,0.0495393991947174,0.0013197080697864,0.0035979333333671,0.0130667379125952,standing
1783090398252510500,5.345510498046875,-0.0507362808290869,-0.1703789246238768,0.0727110159456729,0.0029484971892088,0.0108635686337947,0.0116989379748702,standing
1783090398262554400,5.355554443359375,-0.0387003175333142,-0.1506735226787626,0.0706242727994918,0.0002504887524992,0.0141534358263015,0.0061455122195184,standing
1783090398272598500,5.3655986328125,0.0020967530835419,-0.1367087102122604,0.078005615222454,0.0004345132037997,0.0179441794753074,0.0052842460572719,standing
1783090398282643500,5.3756435546875,0.061130687462911,-0.1312001759238541,0.081821374118328,-0.0017868736758828,0.0202958285808563,0.0069417310878634,standing
1783090398292687400,5.385687255859375,0.0716542734343558,-0.1239995968952775,0.0663040715128183,-0.0049086310900747,0.0201368369162082,0.0028865358326584,standing
1783090398302732500,5.395732666015625,0.042513592211157,-0.1547846112594008,0.0472913280069828,-0.011694137006998,0.0215071626007556,-0.003831485286355,standing
1783090398312776400,5.4057763671875,0.0080386372879147,-0.1709375814199447,0.059281041008234,-0.0194718986749649,0.0154101215302944,0.0007645981386303,standing
1783090398322821400,5.4158212890625,-0.0263292039990425,-0.174967275327444,0.0626239216953516,-0.0178645513951778,0.0075190179049968,0.0135616865009069,standing
1783090398332865500,5.425865478515625,-0.029238515574485,-0.1840871319808066,0.0518529368340969,-0.0054403720423579,-0.0074250441975891,0.0223554447293281,standing
1783090398342909700,5.43590966796875,0.030912440136075,-0.1903093674965202,0.0242605810314416,0.0109379328787326,-0.0108694713562726,0.0259435847401618,standing
1783090398352954400,5.445954345703125,0.0266164234425872,-0.1644227926984429,0.0330927067846059,0.0230824779719114,-0.0037167528644204,0.0243973545730114,standing
1783090398362998500,5.45599853515625,0.0365842752274125,-0.1586237510308623,0.0564390955805778,0.0193522833287715,0.0063203335739672,0.0199778415262699,standing
1783090398373043500,5.46604345703125,0.0228365395776927,-0.1846285453811287,0.07277239074409,0.0076844431459903,0.0195972565561532,0.0119476113468408,standing
1783090398383087400,5.47608740234375,0.0125262310307472,-0.1964580993846058,0.0686976886510849,-0.008461995050311,0.0262000281363725,0.005993781145662,standing
1783090398393131500,5.486131591796875,0.0322184081681072,-0.1863882485300302,0.0851326906234025,-0.019144732505083,0.0242133103311061,0.0009412318468093,standing
1783090398403176400,5.496176513671875,0.0302678586222231,-0.165991064928472,0.0586556025862693,-0.0217039007693529,0.0220996644347906,0.000216384185478,standing
1783090398413220400,5.506220458984375,-0.0194816031266003,-0.1756092264927923,0.0205108731091022,-0.0117548629641532,0.0163046270608901,-0.0028236140497028,standing
1783090398423265500,5.516265625,-0.0619449264552444,-0.1766223490580916,0.0048585459470748,-0.0048215351998806,0.0068636205978691,-0.0106561686843633,standing
1783090398433309400,5.526309326171875,-0.0857889625750482,-0.1585961323715746,0.0076806176304817,-0.0025258907116949,-0.0052865194156765,-0.0141260027885437,standing
1783090398443354400,5.536354248046875,-0.078704995663464,-0.1741952680416405,0.0484387444764375,-0.0023543476127088,-0.0088906995952129,-0.0114690326154232,standing
1783090398453398500,5.5463984375,-0.0448982223253697,-0.1845148558735847,0.080831194037199,0.0016704879235476,-0.0051351096481084,-0.0060708057135343,standing
1783090398463442700,5.556442626953125,0.0038003421310335,-0.1759432807527482,0.0973135422825813,0.0054077878594398,-0.0004709349013864,-0.0037226984277367,standing
1783090398473487400,5.5664873046875,0.0445850647229701,-0.1891552290253341,0.0788110863864421,0.0109671372920274,0.0148038920015096,-0.0006113275885581,standing
1783090398483531500,5.576531494140625,0.0585883095037192,-0.2005430306106805,0.0708212566763162,0.0109076611697673,0.0284122675657272,-0.0007398244924843,standing
1783090398493576400,5.586576416015625,0.0573653435800224,-0.1972495420232415,0.0824737005472183,0.002231081482023,0.0331023596227169,0.0009313091868534,standing
1783090398503620400,5.596620361328125,0.0426008321031928,-0.1809733838744461,0.0576385344982147,-0.003059459850192,0.0222179200500249,0.0031025873031467,standing
1783090398513665500,5.60666552734375,0.027000015932694,-0.1830532588884234,0.0116501057833433,-0.0014178872806951,0.0033741914667189,0.0063692205585539,standing
1783090398523709400,5.61670947265625,0.0245552531290799,-0.1955161423593759,-0.0250771581113338,0.0018003648146986,-0.0149567667394876,0.004373847041279,standing
1783090398533753300,5.62675341796875,0.0024197014275938,-0.1999802821613848,-0.014194529569149,0.0040869545191526,-0.0258400421589612,9.41473990678e-05,standing
1783090398543798500,5.636798583984375,0.0037905513893812,-0.1657161935098469,0.0069599021404981,0.0041286759078502,-0.0284246802330017,-0.0020406430121511,standing
1783090398553842400,5.646842529296875,-0.0006011076983064,-0.1263898530326783,0.0521159716844558,0.0077670863829553,-0.0223081968724727,-0.0014190615620464,standing
1783090398563887400,5.656887451171875,-0.0136186293773353,-0.0793345257386565,0.1264069502979516,0.0058436221443116,-0.0116737708449363,-0.0001362827606499,standing
1783090398573931500,5.666931640625,-0.0225431826543062,-0.0873302006676793,0.1204144318848848,-0.0009373184293508,0.0021317903883755,-0.005118791013956,standing
1783090398583976400,5.6769765625,-0.0234035258106887,-0.1140986728668212,0.0877244606822729,-0.0014035123167559,0.013658732175827,-0.0102951135486364,standing
1783090398594020400,5.687020263671875,-0.0145160896737128,-0.1394764213599264,0.0902840820372104,-0.0046493727713823,0.022225322201848,-0.0169080086052417,standing
1783090398604064800,5.697064697265625,-0.0278103094022721,-0.1354066877029836,0.0771919607520103,-0.0117769241333007,0.0338420644402504,-0.0201494116336107,standing
1783090398614109700,5.707109619140625,-0.0322777371399104,-0.1258889177732169,0.0945662894010543,-0.0244956500828266,0.0348977409303188,-0.021758759394288,standing
1783090398624153600,5.717153564453125,0.0195328218571841,-0.1549015156373381,0.063926820987463,-0.0299929846078157,0.0354835055768489,-0.0141359213739633,standing
1783090398634198800,5.72719873046875,0.0524238685898482,-0.1305941728547215,0.0473679003745317,-0.0205475501716136,0.031490359455347,-0.005896367598325,standing
1783090398644242700,5.73724267578125,0.0513744326021522,-0.1432281751088798,0.0242722714692354,-0.0097372522577643,0.0238802544772624,0.0002560652792453,standing
1783090398654286600,5.74728662109375,0.0102424309425055,-0.1490593654803931,0.0024590835899114,-0.0037110515404492,0.0270211864262819,0.0020539653487503,standing
1783090398664331800,5.757331787109375,-0.0199664640340954,-0.1491739317707717,0.064514265486598,-0.0033600397873669,0.0301192924380302,0.0119115244597196,standing
1783090398674375700,5.767375732421875,-0.0461651004560291,-0.1390674021676182,0.0855120453298091,0.0014759944751858,0.0365092828869819,0.017178725451231,standing
1783090398684420900,5.7774208984375,-0.0455438267525285,-0.1408491710178554,0.0743505998462438,0.009252019226551,0.0452875085175037,0.0154396127909421,standing
1783090398694464800,5.78746484375,0.0169436090815812,-0.1679182335987687,0.0749900667935609,0.0094850454479455,0.0535273291170597,0.0049464916810393,standing
1783090398704509700,5.797509765625,0.0306781929887831,-0.142629040171951,0.0800987881094217,-0.006557697430253,0.0562845841050148,-0.0014333087019622,standing
1783090398714553600,5.8075537109375,0.0503556840136647,-0.166166421495378,0.0571183100163936,-0.0338753387331962,0.0579442642629146,-0.0055042165331542,standing
1783090398724597800,5.81759765625,0.053773675763607,-0.1473398482114076,0.0543307251244783,-0.0475537814199924,0.0506274886429309,-0.0004478071350604,standing
1783090398734642700,5.827642578125,0.0330943872850388,-0.1718403754785656,0.0226303494811058,-0.0432312078773975,0.0354887470602989,0.0074170399457216,standing
1783090398744686600,5.8376865234375,0.0174557963874191,-0.1733798600055277,-0.0184463417947292,-0.0291818343102931,0.0089125670492649,0.0139867253601551,standing
1783090398754731800,5.847731689453125,0.0053842503216117,-0.1596346816390752,-0.0316255568414926,-0.0121083091944456,-0.0190005581825971,0.0112471310421824,standing
1783090398764775700,5.857775634765625,-0.0025347791746258,-0.1243124622367322,-0.0111328039109706,0.0059827249497175,-0.0326369255781173,0.0028171625453978,standing
1783090398774820900,5.86782080078125,-0.0084493369806557,-0.115094990427792,0.027753099322319,0.0179059617221355,-0.0343751721084117,-0.0091087389737367,standing
1783090398784864800,5.87786474609375,-0.0066445525810122,-0.1072030681341886,0.0535410360515117,0.0149638764560222,-0.0298773273825645,-0.029018135741353,standing
1783090398794908700,5.88790869140625,-0.00507036206685,-0.1036202412113547,0.0582809240549802,0.0094420788809657,-0.0164201073348522,-0.0404822416603565,standing
1783090398804953900,5.897953857421875,-0.0113868517372757,-0.1291346216961741,0.1264694941401481,-0.0005710043478757,-0.0078634778037667,-0.0461111664772033,standing
1783090398814997800,5.907997802734375,-0.0108857703473418,-0.1733069408997893,0.1290606796771287,-0.0088403858244419,-0.0036780536174774,-0.0445526838302612,standing
1783090398825042700,5.918042724609375,0.0040922377496957,-0.1954262721188366,0.0874561651349067,-0.0123709430918097,-0.0037838388234376,-0.0342671610414981,standing
1783090398835086800,5.9280869140625,0.0514210482228547,-0.1780582270801067,0.0554103370547294,-0.0031012785620987,-0.0123163405805826,-0.0235287621617317,standing
1783090398845130800,5.938130859375,0.0490043424699455,-0.1630453668653965,0.0176309337586164,0.0155081851407885,-0.0161423329263925,-0.0148833375424146,standing
1783090398855175700,5.94817578125,0.0523110558651387,-0.1676177893474698,-0.0136930097877979,0.0234433412551879,-0.0162363424897193,-0.0096952337771654,standing
1783090398865219600,5.958219482421875,0.0890481835667043,-0.1617791463218629,0.0342921457022428,0.012479149736464,-0.0133101381361484,-0.0117684388533234,standing
1783090398875264800,5.9682646484375,0.0796411074697971,-0.172041158747673,0.066246788367629,-0.0070165209472179,-0.003393059130758,-0.0146363964304327,standing
1783090398885308700,5.97830859375,0.0206855720888823,-0.1589103128872811,0.0713122550636529,-0.018333401530981,0.0011823279783129,-0.0092701930552721,standing
1783090398895353900,5.988353759765625,-0.0300708747453987,-0.1585218980915844,0.0541238043755292,-0.01381241902709,0.0094445189461112,-0.0069021107628941,standing
1783090398905397800,5.998397705078125,-0.0782270028881728,-0.1829853082187473,0.0715337888598442,-0.0067912228405475,0.0203341133892536,-0.0020457804203033,standing
1783090398915441700,6.008441650390625,-0.051909489326924,-0.2129267113655805,0.0824719469815492,-0.0075693977996706,0.0252782702445983,0.0019862453918904,standing
1783090398925486800,6.01848681640625,-0.011419877224043,-0.2095721402406692,0.0625946956008672,-0.007359804585576,0.0240162648260593,0.0068839406594634,standing
1783090398935530800,6.02853076171875,0.0637435733750462,-0.1628996747843921,0.0271627322137355,0.0056875543668866,0.012809682637453,0.0110355420038104,standing
1783090398945575700,6.03857568359375,0.0920189430058002,-0.1390561501212418,-0.0134311439812183,0.0224575232714414,0.0030424618162214,0.0212328527122735,standing
1783090398955619800,6.048619873046875,0.0381728595931082,-0.1513027604930102,-0.0140834704101085,0.0339964665472507,0.0020709407981485,0.0243333056569099,standing
1783090398965664500,6.05866455078125,0.004069806722179,-0.1509421104870736,0.0507277321964502,0.0274831317365169,0.0101784095168113,0.0188435316085815,standing
1783090398975708700,6.068708740234375,-0.0109164577465504,-0.1395974173910915,0.096023502472043,0.0108676701784133,0.0187902729958295,0.0200323667377233,standing
1783090398985752800,6.0787529296875,-0.0262784236598759,-0.1541970206297934,0.1431359667807817,-0.0037684449926018,0.0235932692885398,0.0173600148409605,standing
1783090398995797800,6.0887978515625,-0.0024854601401835,-0.1701113597288727,0.0961509282439947,-0.0095080900937318,0.0196877419948577,0.0192165039479732,standing
1783090399005841700,6.098841552734375,0.0132270727764815,-0.1969670718200504,0.0346007732599973,-0.0037584558594971,0.0155046125873923,0.019493144005537,standing
1783090399015886800,6.108886962890625,0.0264945506285876,-0.1954626586064696,-0.0117529816359281,0.0111927967518568,0.0096714906394481,0.0251622125506401,standing
1783090399025930800,6.1189306640625,0.0156861563663929,-0.1715793864548206,-0.0176057993173599,0.0218872521072626,0.0031653882469981,0.029410220682621,standing
1783090399035974700,6.128974609375,0.0306884221218526,-0.1610601843975484,0.0129348848968744,0.0203849636018276,0.0016180914826691,0.0324829779565334,standing
1783090399046019800,6.139019775390625,0.0552124763950705,-0.1720500727064907,0.0481815548449754,0.0121429655700922,-0.0020495993085205,0.0300531685352325,standing
1783090399056063700,6.149063720703125,0.0676695877123624,-0.1769029195651412,0.0702390728741884,0.0021084402687847,-0.0034914347343146,0.0236935392022132,standing
1783090399066108700,6.159108642578125,0.0452522964600473,-0.1450426771849393,0.0651245063394308,-0.0037988435942679,0.0020966324955224,0.0116223050281405,standing
1783090399076152800,6.16915283203125,-0.0019039339251816,-0.1123471530243754,0.0653138914316892,0.003026838414371,0.0060676718130707,0.0029830110725015,standing
1783090399086197500,6.179197509765625,-0.044711540646851,-0.0957841407582163,0.0620446605026721,0.0107925236225128,0.0072743794880807,-0.0002563267480581,standing
1783090399096241700,6.18924169921875,-0.0548192392937839,-0.120160457123816,0.0648339989602565,0.0117219667881727,0.0080155376344919,-0.0083597935736179,standing
1783090399106285800,6.199285888671875,-0.0251267694067209,-0.1436651052214205,0.0804313810646533,0.0017889088485389,0.0093449875712394,-0.0160307623445987,standing
1783090399116330500,6.20933056640625,0.0098971246361732,-0.136549135736376,0.0875491041153669,-0.007866115309298,0.0135125685483217,-0.0184736810624599,standing
1783090399126374700,6.219374755859375,0.0171769063808023,-0.1387657888725399,0.0602361497759819,-0.0123527450487017,0.0212595723569393,-0.0210015568882226,standing
1783090399136419800,6.229419921875,0.0177173699330538,-0.1516045199185609,0.0510883822023868,-0.0116523336619138,0.0304778404533863,-0.0136171448975801,standing
1783090399146463700,6.239463623046875,-0.0144377637404948,-0.1439450912065804,0.0498643933653831,-0.0020667733624577,0.0360077470541,-0.0023064974229782,standing
1783090399156507600,6.249507568359375,-0.0339828605573624,-0.1661516623176634,0.0472884053975343,0.0064279115758836,0.0354855023324489,0.0113621773198246,standing
1783090399166552800,6.259552734375,0.0145898855622857,-0.1685661761134863,0.0579068300455808,0.0123891327530145,0.026921771466732,0.0220383927226066,standing
1783090399176596700,6.2695966796875,0.0883512142784893,-0.1790967763476073,0.0328740955978631,0.0115491719916462,0.0225296877324581,0.03259889036417,standing
1783090399186641700,6.2796416015625,0.1053067329935729,-0.1512692966148257,0.0348871889859437,0.0103733483701944,0.0231535285711288,0.0370552279055118,standing
1783090399196685800,6.289685791015625,0.1043175027605146,-0.1296698976166546,0.0504880782216787,0.0094889141619205,0.0177744757384061,0.035985704511404,standing
1783090399206730500,6.29973046875,0.0679706895507872,-0.1231635844625532,0.0278729263097047,0.0073491428047418,0.0155021296814084,0.0354177765548229,standing
1783090399216774700,6.309774658203125,-0.0033173809196799,-0.1200854921914637,0.0530289948761463,-0.0027849834877997,0.0096048256382346,0.0329271927475929,standing
1783090399226818800,6.31981884765625,-0.0431022057540714,-0.1257455637797713,0.0444593194514513,-0.012758919969201,0.0003031687811017,0.0348620451986789,standing
1783090399236863500,6.329863525390625,-0.0661276920326054,-0.1224675650224089,0.0388631068795919,-0.0109940432012081,-0.0118656130507588,0.0303463879972696,standing
1783090399246907600,6.33990771484375,-0.0520816310234367,-0.1095394021272659,0.0281114112406969,-0.0050402819178998,-0.0256623178720474,0.0197423435747623,standing
1783090399256952800,6.349952880859375,-0.0248399883545935,-0.1102975270181894,0.0038192660272121,-0.0023547504097223,-0.0367642380297184,0.0079994015395641,standing
1783090399266996700,6.359996826171875,0.0326777693081647,-0.1045262501403689,0.0374807126104831,-0.0079940808936953,-0.0423298925161361,-0.0042615220881998,standing
1783090399277040600,6.37004052734375,0.0416129170443862,-0.0866357886627316,0.0673059420317411,-0.0133491652086377,-0.0423519946634769,-0.0086528081446886,standing
1783090399287085800,6.3800859375,0.0557490674898028,-0.110610684620589,0.0792471397161483,-0.0044723595492541,-0.0329816527664661,-0.0010267784819006,standing
1783090399297129700,6.390129638671875,0.0680187664762139,-0.1659726524889469,0.0899257701188325,0.0068844240158796,-0.0217266045510768,0.0075528612360358,standing
1783090399307174700,6.400174560546875,0.0724917471718043,-0.1933824913315474,0.0843465086817741,0.0109982537105679,-0.0099967885762453,0.0082301693037152,standing
1783090399317218800,6.41021875,0.0740366385262459,-0.1990856714092194,0.0652227060168981,0.0061339903622865,-0.0073671820573508,0.002945925341919,standing
1783090399327263500,6.420263427734375,0.0671060355454683,-0.1753622659943997,0.0493640426278114,-0.0008513508364558,0.0014264127239584,-0.0035342806950211,standing
1783090399337307600,6.4303076171875,0.0114352939888834,-0.1540488443307578,0.0574462267965078,-0.0065505155362188,0.0060818847268819,-0.0097048245370388,standing
1783090399347351800,6.440351806640625,-0.0312358268715441,-0.1357933489330113,0.0592307721257209,-0.0104596735909581,0.0093621965497732,-0.0112309455871582,standing
1783090399357396500,6.450396484375,-0.0738605513069778,-0.1409504394352436,0.0581155043601989,-0.0159005112946033,0.0055892961099743,-0.01054891012609,standing
1783090399367440600,6.460440673828125,-0.0556064441487193,-0.1868080813772976,0.0390390479683876,-0.023189989849925,-0.0031663980334997,-0.0055594146251678,standing
1783090399377485800,6.47048583984375,-0.0202397280175238,-0.2066714503630995,0.0240314484506845,-0.0168657824397087,-0.0140547314658761,-0.0032571118790656,standing
1783090399387529700,6.48052978515625,0.0281260973531752,-0.1889911245048046,0.0040144963383674,0.0027019763365387,-0.0226026643067598,-0.0002092537470161,standing
1783090399397574700,6.49057470703125,0.034600992455706,-0.1642743241384625,0.0096533790081739,0.0221861936151981,-0.0220252908766269,0.0033964000176638,standing
1783090399407618800,6.500618896484375,0.0206312115531414,-0.1544667774818837,0.034347675281763,0.0268017146736383,-0.014207974076271,0.0022554991301149,standing
1783090399417662700,6.510662841796875,0.0233241038989275,-0.1665074900180101,0.074669164276123,0.018392251804471,-0.0049622780643403,0.005404953379184,standing
1783090399427707600,6.520707763671875,0.0605183277182281,-0.1801307955704629,0.111607440572977,0.0071974364109337,-0.0019741626456379,0.0141087658703327,standing
1783090399437751800,6.530751708984375,0.0342769481331109,-0.1871833444304764,0.0619528905659913,0.0019717817194759,-0.0043494366109371,0.0164219867438077,standing
1783090399447796700,6.540796630859375,0.0474867044486105,-0.1767744708798825,0.0385725995004177,0.0038580051623284,-0.0125095304101705,0.0181586295366287,standing
1783090399457840600,6.550840576171875,0.0531077592007815,-0.170276779423654,0.0313134221524,0.000928261782974,-0.0123260393738746,0.0202492121607065,standing
1783090399467884800,6.560884765625,-0.005322656327486,-0.1743701862171292,0.0200286425501108,-0.0021436931565403,-0.0047305068001151,0.0145656280219554,standing
1783090399477929500,6.570929443359375,-0.0824117412269115,-0.1491419291973114,0.0583586654663085,-0.0013724416494369,0.0101560316979885,0.0039587905630469,standing
1783090399487973600,6.5809736328125,-0.0744905197735875,-0.1634437185332179,0.0955851110547781,-0.0001690501812845,0.0143052609637379,-0.002758371643722,standing
1783090399498018800,6.591018798828125,-0.0478659860897809,-0.1606988037392497,0.073740358993411,0.0021795916836708,0.011527051217854,-0.0077049271203577,standing
1783090399508062700,6.601062744140625,-0.0051867549881339,-0.1366134331442415,0.0411427422493696,0.0132280737161636,0.0024608273524791,-0.0080579249188303,standing
1783090399518107600,6.611107666015625,0.007404869429022,-0.1290165482744574,0.0180085348993539,0.0221254285424947,-0.0062969774007797,-0.0015132061671465,standing
1783090399528151800,6.62115185546875,0.0259462690960615,-0.1397960087031126,0.0268324773460626,0.0188864953815937,-0.0215101595968008,0.0110233603045344,standing
1783090399538195700,6.63119580078125,0.0573304914623498,-0.1579324077658355,0.0518716415345668,0.0055035781115293,-0.0312733054161071,0.026349052786827,standing
1783090399548240600,6.64124072265625,0.0756080525614321,-0.1597052626572549,0.0406336236834526,0.0003263875842094,-0.0379171520471572,0.0334350541234016,standing
1783090399558284800,6.651284912109375,0.0460613478206098,-0.1671345358751714,0.0463040705353021,0.0113678537309169,-0.0360532067716121,0.031921848654747,standing
1783090399568329700,6.661329833984375,0.0145908354103565,-0.1473079917684197,0.0357511123389005,0.0272306632250547,-0.0265028364956378,0.0193640459328889,standing
1783090399578373600,6.67137353515625,0.0213688051126897,-0.0939486689593643,0.0677829118937253,0.0333684496581554,-0.0152421919628977,0.0055768610909581,standing
1783090399588417800,6.681417724609375,0.0094550799570977,-0.0860329273987561,0.0806768802583217,0.0282195415347814,0.0032743536867201,-0.0045269709080457,standing
1783090399598462700,6.691462646484375,-0.011670125658065,-0.0913688085339963,0.0918348186105489,0.0122767928987741,0.0205699875950813,-0.0125010078772902,standing
1783090399608506400,6.70150634765625,-0.057086891964823,-0.1039982076782733,0.1233054771512746,-0.0065397312864661,0.0352670364081859,-0.0159362945705652,standing
1783090399618551600,6.711551513671875,-0.0648010465387255,-0.1042993825819343,0.1132347495138645,-0.0204198602586984,0.0458584278821945,-0.0174143481999635,standing
1783090399628595500,6.721595458984375,0.0138587948087602,-0.1224188305098563,0.105619013813138,-0.0266607999801635,0.0395492203533649,-0.0111375395208597,standing
1783090399638640400,6.731640380859375,0.0407990433782339,-0.1417027921725064,0.058538698208332,-0.0157594159245491,0.0203116107732057,-0.0065390588715672,standing
1783090399648684500,6.7416845703125,0.0139594056390225,-0.1504715703658759,-0.0317763634890317,0.0059066005051136,0.0050904750823974,-0.0056650731712579,standing
1783090399658728400,6.751728515625,-0.009918898076564,-0.1773558509644121,-0.0452016622513532,0.0246094483882188,-0.0063813575543463,-0.0048573361709713,standing
1783090399668773400,6.7617734375,-0.0094561759356409,-0.1700724159579724,0.0135474638372659,0.030104661360383,-0.0126138348132371,-0.0025460447650402,standing
1783090399678817500,6.771817626953125,-0.0338878026850521,-0.1390033970206975,0.0589472790092229,0.0220568533986806,-0.0084984526038169,-0.0007947499398142,standing
1783090399688862500,6.781862548828125,-0.0513449873119592,-0.1460253315467387,0.1286596976608038,0.0016119426582008,0.0025347168557345,0.001522199367173,standing
1783090399698906400,6.79190625,-0.0098132457450032,-0.1472703631717711,0.1423433550983667,-0.0238569322973489,0.0085750324651598,-0.000106323743239,standing
1783090399708951600,6.80195166015625,0.0493810668278485,-0.1757222584132105,0.096472999805212,-0.035443540662527,0.0191342495381832,0.0055045587942004,standing
1783090399718995500,6.811995361328125,0.0489501280646771,-0.1741064207144081,0.0358031347870826,-0.0291169323027133,0.0191326513886451,0.0111283557489514,standing
1783090399729039400,6.822039306640625,0.061546574787423,-0.1711117689430713,-0.0121323363423347,-0.0142271593213081,0.0222437530755996,0.0166942961513996,standing
1783090399739084500,6.83208447265625,0.0849350491594523,-0.1428054927174001,0.0096966336280107,-0.0037122005596756,0.0237441789358854,0.0200549382716417,standing
1783090399749128400,6.84212841796875,0.0997349972758442,-0.1127985500536859,0.0231248549997806,0.0058418856933712,0.019371410831809,0.0239990781992673,standing
1783090399759173400,6.85217333984375,0.0625450843054801,-0.1206351619634777,0.0184346513569355,0.00797800719738,0.0090050557628273,0.0252153445035219,standing
1783090399769217500,6.862217529296875,-0.0216998636979609,-0.1189139641940593,0.0215711958169937,0.0052069434896111,0.0005144430324435,0.0205486211925745,standing
1783090399779261400,6.872261474609375,-0.0734578157249838,-0.1178522532466798,0.0559568650215864,-0.0048307767137885,-0.0089317895472049,0.0064274757169187,standing
1783090399789306400,6.882306396484375,-0.0887809109326452,-0.1168481177054345,0.0555517913520336,-0.0193913429975509,-0.0130512379109859,-0.0110294111073017,standing
1783090399799350500,6.8923505859375,-0.0590444557733833,-0.1186038022663444,0.0683119042038917,-0.0230497270822525,-0.0151404868811368,-0.0214713979512453,standing
1783090399809395500,6.9023955078125,-0.0360885275997221,-0.1354271459691226,0.0548988804012536,-0.0188047401607036,-0.0138197978958487,-0.0355817601084709,standing
1783090399819439400,6.912439453125,-0.0160118081241846,-0.1490063201189041,0.0488379729270935,-0.0208069030195474,-0.0122701050713658,-0.045498039573431,standing
1783090399829484500,6.922484619140625,-0.0108835783902555,-0.1740818707950413,0.05326455719769,-0.0217925403267145,-0.0094562079757452,-0.0431786924600601,standing
1783090399839528400,6.932528564453125,-0.0055270197931677,-0.1891509912416338,0.0683545743018388,-0.0170100349932909,-0.0076138330623507,-0.0346366018056869,standing
1783090399849572400,6.942572265625,0.0152433810349553,-0.1884258918374776,0.0713116705417633,-0.0040660966187715,-0.0066913571208715,-0.0234313569962978,standing
1783090399859617500,6.952617431640625,0.084194679120928,-0.2027016699492931,0.065883215752244,0.0072701810859143,-0.0050260825082659,-0.0154163064435124,standing
1783090399869661700,6.96266162109375,0.1071045761957764,-0.21871844650954,0.0482785854786634,0.0115203205496072,-0.0070902993902564,-0.007265169173479,standing
1783090399879706400,6.972706298828125,0.0857300719946622,-0.2014076846159994,0.0474234299540519,0.002324956934899,-0.0050425948575139,-0.0013034169096499,standing
1783090399889750500,6.98275048828125,0.0624243805352598,-0.2006993902161717,0.0226361947000026,-0.0152594074606895,-0.0007339864969253,-0.0022229419555515,standing
1783090399899794400,6.99279443359375,0.0212205557484179,-0.2017041833445429,0.0323836817324161,-0.0328298807144165,0.0038746136706322,-0.0003760398831218,standing
1783090399909839400,7.00283935546875,0.0208721807021647,-0.1980991445899009,0.0259656313836574,-0.0377732776105403,-0.0029820925556123,-0.0009498787112534,standing
1783090399919883500,7.012883544921875,-0.0222154850699007,-0.1682413280732929,0.0161976860851049,-0.0275379493832588,-0.0113161876797676,-0.0001874158624559,standing
1783090399929928400,7.022928466796875,-0.0707673345319926,-0.153321114578098,0.0067342766910791,-0.0090393703430891,-0.0109637808054685,7.3933042585e-06,standing
1783090399939972400,7.032972412109375,-0.0890961143616587,-0.1344616619378328,0.0455032755464315,0.0013813127297908,-0.0119699239730834,-0.0035862762015312,standing
1783090399950017500,7.043017578125,-0.0749187551230192,-0.1528916371196508,0.0829372264057397,-0.0064972080290317,-0.01096748188138,-0.0039954744279384,standing
1783090399960061400,7.0530615234375,-0.0466476963412016,-0.1659234065197408,0.1111000755727291,-0.0221499372273683,-0.0085906125605106,-0.0041110552847385,standing
1783090399970105300,7.063105224609375,-0.0106658439863473,-0.1621842199914157,0.0981201824903488,-0.0275633875280618,-0.0120338052511215,-0.0018411739729344,standing
1783090399980150500,7.073150634765625,0.016730404722318,-0.1678742483265697,0.0445054966807365,-0.0081129902973771,-0.0088760945945978,0.0028694253414869,standing
1783090399990194400,7.0831943359375,0.0400553123388439,-0.1784875584080815,0.0333317762374877,0.021232159808278,0.0034468069206923,0.0108789484947919,standing
1783090400000239400,7.0932392578125,0.0969406903821974,-0.1775081919819116,0.0435778604418039,0.0392668209969997,0.016614805907011,0.0123018752783536,standing
1783090400010283500,7.103283447265625,0.1012444519907236,-0.1519623934455216,0.0600812514752149,0.0249393228441476,0.0236327610909938,0.0105052385479211,standing
1783090400020327700,7.11332763671875,0.047274084611237,-0.1602200803115963,0.0793067609488964,-0.0101187964901328,0.027821647003293,0.0093254577368497,standing
1783090400030372400,7.123372314453125,0.0267249253183603,-0.1670288835436105,0.0577495936572551,-0.0329272523522377,0.0259226839989423,0.0111171044409275,standing
1783090400040416500,7.13341650390625,-0.0210774209506809,-0.161607296886295,0.0451724361568689,-0.0258903838694095,0.0192472040653228,0.0104798097163438,standing
1783090400050461400,7.14346142578125,-0.0352095528081059,-0.1566299468651414,0.0070861588686704,-0.0090632978826761,0.0087519269436597,0.0072328774258494,standing
1783090400060505300,7.15350537109375,-0.0188028270822018,-0.1543978038989007,0.0051724342018365,0.0029329117387533,0.0007597804069519,0.003153181169182,standing
1783090400070550500,7.163550537109375,-0.0027138620685786,-0.142813749089092,0.0480868622988462,-0.0037083027418702,-0.0079557243734598,0.0024098907597362,standing
1783090400080594400,7.173594482421875,0.0043004736728966,-0.1260420625083148,0.0632972909122705,-0.0124863479286432,-0.0148514481261372,-0.0005102653522044,standing
1783090400090638300,7.183638427734375,-0.0073532853722572,-0.0983479998968541,0.03470774076581,-0.0087649254128336,-0.0192999225109815,-0.0030778106302022,standing
1783090400100683500,7.19368359375,-0.004137392065674,-0.0981705975033342,0.044002807855606,-0.0010854339925572,-0.0259016305208206,-0.0035265535116195,standing
1783090400110727400,7.2037275390625,0.0117271896075457,-0.0922327318869531,0.0583370381563901,0.0075238896533846,-0.0248164758086204,-0.0008980925194919,standing
1783090400120772400,7.2137724609375,0.0438922601532191,-0.1426638192243874,0.0772556736379861,0.0101060904562473,-0.0175535026937723,0.0069691515527665,standing
1783090400130816500,7.22381640625,0.0382592227023094,-0.1495529942162334,0.093030165874958,0.0013932951260358,-0.0167060196399688,0.0167449600994586,standing
1783090400140861400,7.233861328125,0.0284018455546349,-0.1677547136001289,0.0841904413372278,-0.0035364823415875,-0.0145499240607023,0.028480976819992,standing
1783090400150905300,7.2439052734375,0.0390660821057856,-0.1650397555530071,0.0473591325461864,-0.0027252351865172,-0.0160170122981071,0.0294957105070352,standing
1783090400160949500,7.253949462890625,0.0187610337670892,-0.1424241652496159,0.0394423680722713,-0.0020120406989008,-0.0118217328563332,0.029262950643897,standing
1783090400170994400,7.263994384765625,0.0367418769419193,-0.1165541031949222,0.0659358227223157,-0.0068801250308752,-0.0096807898953557,0.018701784312725,standing
1783090400181038300,7.274038330078125,0.0418498676054179,-0.1234440088391304,0.0605512070745229,-0.0092210434377193,-0.0050466237589716,0.0150449974462389,standing
1783090400191083500,7.28408349609375,0.048102059867978,-0.0971124667525291,0.0610398673743009,-0.0062161087989807,-0.0028036669827997,0.0134194055572152,standing
1783090400201127400,7.29412744140625,-0.008169058734551,-0.1135651505120098,0.0502449171155691,-0.002302327658981,0.0005966573953628,0.0123341670259833,standing
1783090400211171300,7.30417138671875,-0.0552331538569182,-0.1233557460337877,0.0188403095483779,-0.0003055694978684,-0.0066248336806893,0.0111895417794585,standing
1783090400221216500,7.314216552734375,-0.0439339804030954,-0.1366129947528243,0.0269751006871461,-0.0020174493547528,-0.0180545877665281,0.0056767985224723,standing
1783090400231260400,7.324260498046875,-0.0175930859662592,-0.1438365162655711,0.0101052144289016,-0.0023507089354097,-0.0312186852097511,-0.0005221103783696,standing
1783090400241305300,7.334305419921875,-0.0056534957170486,-0.1434440098166465,0.017629764714837,-0.0073031233623623,-0.0418449640274047,-0.0096706012263894,standing
1783090400251349500,7.344349609375,0.0134499217469245,-0.1454416133746504,0.0205313313752412,-0.0070645459927618,-0.0484732985496521,-0.01323171146214,standing
1783090400261394400,7.35439453125,0.0161621763803064,-0.1420205528847873,0.0315998378783464,-0.0011794927995651,-0.0620469003915786,-0.0103531014174222,standing
1783090400271438300,7.364438232421875,0.0126524877589195,-0.1399009303823113,0.019703648379445,0.0101101752370595,-0.0798374712467193,-0.0075000599026679,standing
1783090400281482500,7.374482421875,0.0131966045729815,-0.1493034033693373,0.0301800342082977,0.0126239340752363,-0.0921069234609603,-0.0051847072318196,standing
1783090400291527400,7.38452734375,0.0625643004626035,-0.1708154163450002,0.0742284347712993,0.0046192244626581,-0.0937517434358596,-0.0057155480608344,standing
1783090400301571300,7.3945712890625,0.0966566127438098,-0.1754686489783227,0.0932686508059501,-0.0115347113460302,-0.0924193635582923,-0.0026750168763101,standing
1783090400311616500,7.404616455078125,0.1064783340562134,-0.1778166734091937,0.0502355647653341,-0.0194288939237594,-0.0802424550056457,-0.0039045240264385,standing
1783090400321660400,7.414660400390625,0.0826443809390068,-0.1995177792161703,0.049831075617671,-0.0190949346870183,-0.0587731152772903,-0.0074633061885833,standing
1783090400331704300,7.424704345703125,0.0397528222609311,-0.2017240570887923,0.0621878683656454,-0.0045099980197846,-0.0381826534867286,-0.0078102480620145,standing
1783090400341749500,7.43474951171875,-0.0012991729650646,-0.1846326370343566,0.0507078584522008,0.0092201950028538,-0.0145273935049772,-0.0053811790421605,standing
1783090400351793400,7.44479345703125,-0.0347835824809968,-0.1780002132825553,0.0822550893604755,0.0150002278387546,0.0069686053320765,-0.0017817867919802,standing
1783090400361838300,7.45483837890625,0.0056008156817406,-0.1579557886414229,0.121174894863367,0.0132068544626235,0.0161152333021163,-0.0034880740568041,standing
