time,seconds_elapsed,accel_x,accel_y,accel_z,gyro_x,gyro_y,gyro_z,label
1783090419379108900,0.06310888671875,-0.1167632159009575,-0.2087669613376259,-0.2337906356960535,0.1521366834640503,-0.0292261466383934,0.229999303817749,standing
1783090419389154000,0.073154052734375,-0.0467563443474471,-0.2135498116999864,-0.241572375613451,0.3173103630542755,0.0170551557093858,0.2725303471088409,standing
1783090419399197700,0.08319775390625,0.2279686515443026,-0.1046653663501143,-0.1332622230201959,0.4655011892318725,0.0835843831300735,0.2750526070594787,standing
1783090419409243000,0.093242919921875,0.3814810509108006,0.0124998544804751,-0.0041296471506357,0.5566787123680115,0.1449577063322067,0.2891278564929962,standing
1783090419419287000,0.103287109375,0.3728917940028011,0.0368306512039154,0.1217711071908473,0.5752822756767273,0.1607688963413238,0.3244312405586242,standing
1783090419429332000,0.11333203125,0.4002119087353348,0.0878038095287978,0.2784317414551973,0.5515503883361816,0.1140307113528251,0.3689755499362945,standing
1783090419439376000,0.1233759765625,0.4081653519578277,0.0613792553965002,0.1143330661445856,0.5245858430862427,0.1172584593296051,0.4200312793254852,standing
1783090419449420000,0.133419921875,0.3642997606158256,-0.0038677082788199,0.0043622868627309,0.4869407713413238,0.1393681764602661,0.4550173878669739,standing
1783090419459464700,0.143464599609375,0.3305662717096507,-0.0511637855261564,0.0452875869691371,0.4241644740104675,0.1350716948509216,0.4707188308238983,standing
1783090419469508900,0.1535087890625,0.3208120626755059,-0.0222371854450553,0.0489063619881868,0.3478195071220398,0.1064536124467849,0.4806805849075317,standing
1783090419479554000,0.163553955078125,0.2907750901997089,-0.0247016027972102,0.0057388359129428,0.3004663586616516,0.0882530361413955,0.4888679385185241,standing
1783090419489597700,0.17359765625,0.1952484313338995,-0.0380907342676073,-0.014077040669322,0.2913001775741577,0.0778835341334343,0.4940511286258697,standing
1783090419499643000,0.183642822265625,0.0668023764237761,-0.0228124280497431,-0.1039186396360397,0.3115303516387939,0.0556365512311458,0.4997348189353943,standing
1783090419509687000,0.19368701171875,-0.0591866407230496,-0.0632641192950308,-0.1404939278393983,0.3426511287689209,0.0385334268212318,0.4925971031188965,standing
1783090419519732000,0.20373193359375,-0.0846193342737853,-0.1036520245891064,-0.1190875671952962,0.3714958429336548,0.0225962698459625,0.4737541973590851,standing
1783090419529775900,0.21377587890625,-0.0991954105064272,-0.1085115934494882,-0.0523719922721385,0.3821950554847717,0.0068679004907608,0.4520931541919708,standing
1783090419539820000,0.223820068359375,-0.0900261617533862,-0.0619468992166221,0.0127057523161172,0.3755070567131042,-0.0013064057566225,0.4230380654335022,standing
1783090419549865000,0.233864990234375,-0.0454956767618656,-0.0453211969777941,0.0734136112570762,0.3516491055488586,-0.0101945418864488,0.385021448135376,standing
1783090419559908900,0.243908935546875,-0.0066837155476212,-0.0669556672893464,0.1269330199986696,0.3327233493328094,-0.0331179648637771,0.3510365784168243,standing
1783090419569953800,0.253953857421875,-0.0815764594465494,-0.0748756466336548,0.1006722050607204,0.3199868500232696,-0.044473759829998,0.3280466496944427,standing
1783090419579998000,0.263998046875,-0.1327954822912812,-0.1146886015839874,0.1689215654224157,0.2966442406177521,-0.0664757341146469,0.3030840456485748,standing
1783090419590043000,0.27404296875,-0.1610213136918842,-0.1049831270623952,0.1371603995025158,0.2649372518062591,-0.0745152458548545,0.2816730141639709,standing
1783090419600087000,0.284087158203125,-0.1614722723297774,-0.0768954620234668,0.2083160026997327,0.2384337484836578,-0.0872225239872932,0.2568177282810211,standing
1783090419610132000,0.294132080078125,-0.1020931777745485,0.0079192486919462,0.1527361542969942,0.2016574442386627,-0.0792766809463501,0.2251362353563308,standing
1783090419620174800,0.3041748046875,-0.1230649463936686,0.1410408941976726,0.0443266329824924,0.1632820963859558,-0.0572962835431098,0.1885246932506561,standing
1783090419630219000,0.314218994140625,-0.0811591108173132,0.1792207680534571,0.0871259102672338,0.1146355494856834,-0.0371980853378772,0.1482391953468322,standing
1783090419640263700,0.324263671875,-0.0173801738679409,0.2321842964779585,0.0671633186906576,0.0522611252963542,-0.0397621765732765,0.1228251755237579,standing
1783090419650307800,0.334307861328125,-0.0302267959594726,0.2697812558792531,0.0014174655824899,0.00773865589872,-0.060573823750019,0.1172144338488578,standing
1783090419660353000,0.34435302734375,-0.1424506148651242,0.217388293884322,0.0212520468652248,-0.0155751891434192,-0.082953430712223,0.1215109154582023,standing
1783090419670397000,0.35439697265625,-0.2272605032749474,0.1525659122966229,0.091202365925908,-0.0297444500029087,-0.10169717669487,0.1267859786748886,standing
1783090419680441900,0.36444189453125,-0.2556995390348136,0.1432110778436064,0.1406459035307168,-0.0415233448147773,-0.1115732342004776,0.1296262294054031,standing
1783090419690486000,0.374486083984375,-0.2308322242818772,0.1760102815743535,0.1824947482228279,-0.0553813278675079,-0.1170754060149192,0.1315283328294754,standing
1783090419700531000,0.384531005859375,-0.1049840769104659,0.2433684652499854,0.1073509521722793,-0.0781268551945686,-0.1126891747117042,0.1185241118073463,standing
1783090419710574800,0.394574951171875,0.0345635099895298,0.3614443711847067,0.088492522445321,-0.1013208478689193,-0.1157810017466545,0.1068717092275619,standing
1783090419720619000,0.404618896484375,0.0679445321962237,0.4337866268832236,0.1156400570899248,-0.1089137867093086,-0.1368982791900634,0.1028479412198066,standing
1783090419730664000,0.414663818359375,0.031479426369071,0.4013036494947969,0.0158463884294033,-0.0963454917073249,-0.1519792079925537,0.102401003241539,standing
1783090419740707800,0.424707763671875,-0.0799286922395229,0.3186554691635072,-0.0887117181539535,-0.0585736073553562,-0.1481937915086746,0.1033243164420127,standing
1783090419750753000,0.4347529296875,-0.1991660431690514,0.2413943886980414,-0.1071329255074262,-0.0072449902072548,-0.1303942203521728,0.083994023501873,standing
1783090419760796700,0.444796630859375,-0.1510747969560325,0.1927920511577278,-0.0152168583542108,0.0326856486499309,-0.1083035692572593,0.0485316403210163,standing
1783090419770841900,0.454841796875,-0.0066726096317172,0.2149473304729908,0.0853606541603803,0.0384552180767059,-0.0847929716110229,0.0078240167349576,standing
1783090419780886000,0.464885986328125,0.0003394610874354,0.3133173230059444,0.1975099465250968,0.008271750062704,-0.0604870989918708,-0.0218896716833114,standing
1783090419790931000,0.474930908203125,-0.0787635939829051,0.3190644883558154,0.3113783177673817,-0.0465589314699173,-0.0424686670303344,-0.0422874763607978,standing
1783090419800974800,0.484974853515625,-0.0465608217753469,0.3046635494943708,0.3350502852559089,-0.0969107896089553,-0.0283243544399738,-0.0396032780408859,standing
1783090419811019000,0.49501904296875,0.101518738887459,0.3037768297877162,0.2576502347111701,-0.1343299448490142,-0.0170240197330713,-0.0166962854564189,standing
1783090419821064000,0.50506396484375,0.1880415686950087,0.2861599245544522,0.1544903044879436,-0.1627149879932403,-0.0180906150490045,0.0061427168548107,standing
1783090419831107800,0.51510791015625,0.2755231605321169,0.2790666052926331,0.0853682529449462,-0.177878201007843,-0.0197937563061714,0.030672550201416,standing
1783090419841153000,0.525153076171875,0.2584444538287818,0.3161157946180552,0.0323474413752555,-0.1813277900218963,-0.0155068654567003,0.0635825619101524,standing
1783090419851197000,0.535197021484375,0.1751752189897,0.2854725998774171,0.0745025755375623,-0.1795543134212494,-0.0134075656533241,0.0921745300292968,standing
1783090419861241900,0.545241943359375,0.0805121912159025,0.2025531283240765,0.1414081200748682,-0.1655559539794922,-0.0088335871696472,0.116033524274826,standing
1783090419871286000,0.5552861328125,-0.0238848795868456,0.1356765176203102,0.136951140666008,-0.1407118439674377,0.0239710696041584,0.1180218309164047,standing
1783090419881331000,0.5653310546875,-0.1333981243595481,0.140811980812624,0.1589046137988567,-0.1481881290674209,0.0679116323590278,0.0990595892071724,standing
1783090419891374800,0.575374755859375,-0.1439594119928777,0.0678116265315562,0.2116881094813346,-0.2024039775133133,0.1042720079421997,0.0700536519289016,standing
1783090419901419000,0.5854189453125,-0.1547328810721635,-0.0532934910312294,0.1760077242910862,-0.3127571046352386,0.1358104944229126,0.0359327010810375,standing
1783090419911464000,0.5954638671875,-0.1536610140569508,-0.2158134457830339,0.1570189461827278,-0.4879351854324341,0.140973225235939,-0.0163811668753623,standing
1783090419921507800,0.6055078125,0.0808025524646043,-0.1164226588349789,0.2013087542861699,-0.7645748257637024,0.1309421509504318,-0.054967176169157,standing
1783090419931552800,0.615552734375,0.2625260240539908,0.1639277026578784,0.3021323505163192,-0.9846420288085938,0.1313682794570922,-0.0196392312645912,standing
1783090419941597000,0.625596923828125,0.0436858508609235,0.1758566984478384,0.4056073380380868,-1.0304560661315918,0.1223018169403076,0.0491446256637573,standing
1783090419951641900,0.635641845703125,-0.0829701057620346,0.0810107883878052,0.06100421153903,-0.9046766757965088,0.1323751956224441,0.0625946000218391,standing
1783090419961686000,0.64568603515625,-0.0596529430605471,0.1388945298187434,-0.2604191149026155,-0.6702210307121277,0.1372498422861099,0.0446523465216159,standing
1783090419971731000,0.65573095703125,-0.074463997092843,0.201569743309915,-0.3479477607518434,-0.4195961952209472,0.1397660225629806,0.0320543199777603,standing
1783090419981774800,0.66577490234375,-0.0137181442290544,0.2092513838537037,-0.4386240569770336,-0.2596848309040069,0.1622753292322158,0.0229319296777248,standing
1783090419991819800,0.67581982421875,0.1196774959124624,0.2610522982396185,-0.3599550094097852,-0.2166630178689956,0.1728556305170059,0.0428290143609046,standing
1783090420001864000,0.685864013671875,0.0589582387946546,0.1789572217464446,-0.0151566525995731,-0.232996180653572,0.1683937609195709,0.0864302888512611,standing
1783090420011907800,0.695907958984375,-0.0794154820203781,0.0376752122692763,0.0239449392110109,-0.2479282170534134,0.2019141018390655,0.1069683879613876,standing
1783090420021952800,0.705952880859375,-0.1203768763534724,-0.008677811974287,-0.0026548984229564,-0.220082476735115,0.2389647960662841,0.104892186820507,standing
1783090420031997000,0.715996826171875,-0.137416273959726,0.0227956230454146,0.1264315002173185,-0.15962515771389,0.2631618678569793,0.0848933085799217,standing
1783090420042042000,0.7260419921875,-0.0360832669027149,-0.0110923257701098,0.2307154660344123,-0.0847850143909454,0.2555566728115082,0.0516852959990501,standing
1783090420052085800,0.736085693359375,0.1307961251676082,-0.0924498817689716,0.2329296349525451,0.0177833959460258,0.2327770590782165,0.0168368276208639,standing
1783090420062131000,0.746130859375,0.0832011380389332,-0.1248341480232775,0.0544330164551734,0.1266829818487167,0.2063531726598739,-0.0091558909043669,standing
1783090420072174800,0.7561748046875,-0.1059672427289187,-0.2090164060540497,-0.1314788467347621,0.1923256814479828,0.1773309409618377,-0.0490628965198993,standing
1783090420082219000,0.766218994140625,-0.1245506549067795,-0.2470515376769006,-0.1809814210504293,0.1683337986469268,0.1448768675327301,-0.0971001982688903,standing
1783090420092264000,0.776263916015625,0.0317554668314754,-0.3353203343689441,-0.1033423010528087,0.0891224592924118,0.1093051433563232,-0.1294514089822769,standing
1783090420102307800,0.786307861328125,0.0501744822278618,-0.3413081766068935,0.0478173977077007,0.0395144335925579,0.0758854001760482,-0.1399924606084823,standing
1783090420112352800,0.796352783203125,-0.0533532583944499,-0.3149082454591989,0.0474836357086896,0.0316998995840549,0.0558549836277961,-0.1506731659173965,standing
1783090420122397000,0.80639697265625,-0.0596288315325975,-0.3630629122972488,0.0014116203635931,0.0486538521945476,0.050870344042778,-0.1604504287242889,standing
1783090420132442000,0.816442138671875,0.0137726508952677,-0.3504265719555318,0.0047679450541734,0.0502697452902793,0.0608190633356571,-0.1764499992132187,standing
1783090420142485800,0.82648583984375,0.1198630816124379,-0.2632312497138976,0.0776934805333614,0.0425934493541717,0.05889493227005,-0.2080755680799484,standing
1783090420152531000,0.836531005859375,0.1698839807137847,-0.1414450910843908,0.2365244445741176,0.0516638234257698,0.0588599294424057,-0.2243992835283279,standing
1783090420162575000,0.8465751953125,0.1155849659018218,-0.0319379837915301,0.0906646057873964,0.0657756477594375,0.0370963066816329,-0.2236834317445755,standing
1783090420172619800,0.856619873046875,0.131075380500406,-0.0640226825773715,-0.0101800332307815,0.0954006388783454,0.0112941674888134,-0.2122763097286224,standing
1783090420182664000,0.866663818359375,0.1019509928248822,-0.1406255913950503,-0.0810842920154333,0.1365432739257812,-0.0310879088938236,-0.1943407207727432,standing
1783090420192708000,0.8767080078125,0.053821168167144,-0.1962533705927431,-0.1025631333738565,0.1945566087961197,-0.0729303136467933,-0.1770896911621093,standing
1783090420202752800,0.886752685546875,-0.0067811845727264,-0.2387342295780777,-0.1001256770938634,0.2598117887973785,-0.1039787754416465,-0.1682495921850204,standing
1783090420212797000,0.896796875,0.0109473643414676,-0.2282951070196926,-0.0682762483686208,0.3080732226371765,-0.1212754026055336,-0.1647595167160034,standing
1783090420222841900,0.906841796875,0.0314545841887593,-0.1611332496337592,-0.0285007028192281,0.3217184543609619,-0.1241886392235755,-0.1702317893505096,standing
1783090420232885800,0.9168857421875,0.1054543247707188,-0.1752963611513376,0.0413140071630477,0.3037250339984894,-0.1076093986630439,-0.1808691918849945,standing
1783090420242931000,0.926930908203125,0.1425026373133063,-0.1935563865937292,0.1057002623558044,0.2677175104618072,-0.0900543704628944,-0.1951442658901214,standing
1783090420252975000,0.93697509765625,0.1669245463863015,-0.2332626662991941,0.2151151613205671,0.2258895933628082,-0.0746692195534706,-0.2257291376590728,standing
1783090420263019800,0.947019775390625,0.2020186561211943,-0.1860876581482589,0.2134732393324375,0.1547642797231674,-0.0720979422330856,-0.2526617050170898,standing
1783090420273064000,0.95706396484375,0.1577256331473588,-0.1759422578394412,0.1584393343746662,0.083852469921112,-0.0680506825447082,-0.2651539146900177,standing
1783090420283108000,0.967108154296875,0.1261231649205088,-0.1870586951375007,0.1079524251967668,0.0310912504792213,-0.0657563731074333,-0.2560208439826965,standing
1783090420293152800,0.97715283203125,0.1201645487770438,-0.2038849614497274,0.0834469294935464,0.0089037017896771,-0.0699573159217834,-0.2332963049411773,standing
1783090420303197000,0.987197021484375,0.139901514904201,-0.1925291624378413,0.0066027592658996,0.0268390253186225,-0.0739347487688064,-0.2033684998750686,standing
1783090420313241900,0.997241943359375,0.179787388960272,-0.1246722354598343,-0.0642547377675771,0.0765386670827865,-0.0653880536556243,-0.1652303040027618,standing
1783090420323285800,1.00728564453125,0.3059231211014092,-0.0428163745500147,-0.0625561171561479,0.1516488641500473,-0.0522466860711574,-0.1259750425815582,standing
1783090420333331000,1.0173310546875,0.3866092075794935,0.0702646457068622,-0.056796822977066,0.2314984947443008,-0.0222665481269359,-0.0875090882182121,standing
1783090420343374800,1.027374755859375,0.333210356477648,0.1366539843503385,-0.0182721542716026,0.2559961080551147,0.0176260061562061,-0.0647100359201431,standing
1783090420353420000,1.037419921875,0.2035069949828088,0.1273945730958134,0.0031505729854106,0.1908060610294342,0.0655975639820098,-0.0540292263031005,standing
1783090420363464000,1.0474638671875,0.1146405246585607,0.0822607884488999,0.1748176377236843,0.0889297500252723,0.097048170864582,-0.039104338735342,standing
1783090420373508000,1.057508056640625,0.0244572726473212,0.0816133573908358,0.2952688944876194,0.0006425324827432,0.1042454466223716,-0.0213455073535442,standing
1783090420383552800,1.067552734375,-0.0583776624277234,0.0540678364045918,0.2315875726938247,-0.0230785105377435,0.089360773563385,-0.0049252551980316,standing
1783090420393597000,1.077596923828125,-0.093523356219381,0.0536298833787441,0.1094295120120048,0.0135325966402888,0.0640199482440948,0.0114064402878284,standing
1783090420403641900,1.087641845703125,-0.1005045934088528,0.0438036320216953,0.0127308867573738,0.0911520272493362,0.0354157388210296,0.0296022221446037,standing
1783090420413685800,1.097685791015625,-0.1070892324961721,-0.0001142009641975,0.0180751703947782,0.1673003733158111,0.0116185545921325,0.0422315225005149,standing
1783090420423731000,1.10773095703125,-0.0720513829931616,-0.0754964088805019,0.0537538020193576,0.2303744107484817,-0.0205505676567554,0.0361677706241607,standing
1783090420433774800,1.11777490234375,-0.0159653386339545,-0.1014518111310899,0.0249818810433149,0.2727426290512085,-0.0439368672668933,0.0303015056997537,standing
1783090420443820000,1.127820068359375,0.0428613827355206,-0.1556177010826766,-0.0494195722073316,0.3043706119060516,-0.0550422482192516,0.0282460786402225,standing
1783090420453864000,1.137864013671875,-0.0260017256103456,-0.2168140011277049,-0.1646042867451906,0.3059621155261993,-0.0488304272294044,0.0002301568165421,standing
1783090420463907800,1.147907958984375,-0.0048639527745544,-0.3131001000586897,-0.0585609100401401,0.2684365808963775,-0.0547485016286373,-0.0357392951846122,standing
1783090420473953000,1.157953125,0.0325813962616026,-0.2952661180086434,0.0921691651314497,0.2071202099323272,-0.0593420080840587,-0.0593068115413188,standing
1783090420483997000,1.167996826171875,0.0381819927476346,-0.2962432924777269,0.1757084490835666,0.1478220075368881,-0.05341088026762,-0.0790903717279434,standing
1783090420494041900,1.178041748046875,-0.0228054137870669,-0.3456218020223081,0.1830003596574068,0.110249325633049,-0.0327735096216201,-0.10001802444458,standing
1783090420504086000,1.1880859375,-0.0243489899672567,-0.3544341270964593,0.1630471204310655,0.1069539859890937,-0.011947032995522,-0.1130602657794952,standing
1783090420514131000,1.198130859375,0.0261990017481148,-0.3495752158232033,0.1410398712843656,0.1361338347196579,0.014357665553689,-0.1234718114137649,standing
1783090420524174800,1.2081748046875,0.0808332398638129,-0.3625066666539758,0.1244745209306478,0.1829322278499603,0.0505894385278224,-0.1286287605762481,standing
1783090420534220000,1.218219970703125,0.1105827737003564,-0.3550826541330665,0.1380062026768922,0.2289072275161743,0.0823956802487373,-0.1373679935932159,standing
1783090420544264000,1.228263916015625,0.0322726225733757,-0.3260104350361973,0.1048287402182817,0.2607392072677612,0.0917899832129478,-0.1345900595188141,standing
1783090420554308900,1.238308837890625,0.0128409230031073,-0.3075411507572979,0.0800537799239158,0.2764428555965423,0.0899503752589225,-0.1195339486002922,standing
1783090420564353000,1.24835302734375,-0.0098130996145308,-0.2612253897842019,0.0598141249716281,0.2760436534881592,0.0857780054211616,-0.0933020785450935,standing
1783090420574397000,1.25839697265625,-0.088207275763154,-0.2155793447662145,0.0277414088845253,0.2685037851333618,0.0817351788282394,-0.0655802935361862,standing
1783090420584441900,1.26844189453125,-0.1867394000552594,-0.2083340498130768,0.0096077863007783,0.2252202183008194,0.0836289525032043,-0.0600931160151958,standing
1783090420594486000,1.278486083984375,-0.1193617079615592,-0.259451292783767,0.0510538954108953,0.1666498780250549,0.0765326991677284,-0.0617067888379097,standing
1783090420604530700,1.28853076171875,0.0296009191460907,-0.1743449787106364,0.0477829109162092,0.1260872781276703,0.0790890678763389,-0.0480788573622703,standing
1783090420614574800,1.298574951171875,0.0679541768074035,-0.1314928387274965,0.0107446813762187,0.1272350251674652,0.0844415500760078,-0.024122666567564,standing
1783090420624620500,1.30862060546875,0.0856491157129406,-0.157421389503777,-0.0130155489176511,0.1526202708482742,0.1044514775276184,0.0009137096349149,standing
1783090420634664200,1.318664306640625,0.1250210488975048,-0.1700928011588752,-0.025524317356944,0.1850292384624481,0.1261110752820968,0.0296280682086944,standing
1783090420644709400,1.32870947265625,0.1357512633569538,-0.1826642961034551,-0.0180704942196607,0.2118635177612304,0.1527938097715377,0.0633450150489807,standing
1783090420654753500,1.33875341796875,0.1677817477375268,-0.137968354884535,0.0500444261074066,0.219339057803154,0.188858225941658,0.1061308830976486,standing
1783090420664797200,1.348797119140625,0.1227162790864705,-0.0730574912957847,0.1101473048925399,0.2018687278032302,0.2147164493799209,0.149361714720726,standing
1783090420674842400,1.35884228515625,0.1034092288091778,-0.0393121658213436,0.1607873588055372,0.1697005927562713,0.2308105230331421,0.1885362714529037,standing
1783090420684886500,1.368886474609375,0.04867182257995,0.0514338711718097,0.1619400359719991,0.159566193819046,0.227958545088768,0.2436381429433822,standing
1783090420694931500,1.378931396484375,0.0377152520187199,0.1581633304448798,0.1088625257790088,0.1876691579818725,0.2109764218330383,0.3039225935935974,standing
1783090420704975400,1.388975341796875,0.006057400342822,0.1587035748014226,-0.0143465052604675,0.2228532433509826,0.1963705718517303,0.3553415834903717,standing
1783090420715020500,1.3990205078125,0.0096565938785672,0.0371531246239319,-0.0267430454969406,0.2224562615156173,0.1805717796087265,0.3940791189670563,standing
1783090420725064400,1.409064453125,-0.0335474648147821,0.0123998281721025,0.0098772508919239,0.1974790096282959,0.1615927666425705,0.4286077916622162,standing
1783090420735109400,1.419109375,-0.146065298230946,-0.0920907296003773,0.0520873301118612,0.1807072907686233,0.1477808207273483,0.4397098422050476,standing
1783090420745153500,1.429153564453125,-0.1982975897714495,-0.2022341985680162,0.0520300469666719,0.1562280505895614,0.1443522721529007,0.4215146005153656,standing
1783090420755197200,1.439197265625,-0.2070002439260482,-0.2242805010834708,0.0979740520179271,0.1152611374855041,0.1342963576316833,0.3981609940528869,standing
1783090420765242400,1.449242431640625,-0.1904604664050042,-0.2579822066118941,0.1220803192704916,0.073767751455307,0.1106229797005653,0.3806712329387665,standing
1783090420775286500,1.45928662109375,-0.1543416897974908,-0.2742068172365426,0.0573883591294288,0.0483735688030719,0.0775091797113418,0.3647803664207458,standing
1783090420785331500,1.46933154296875,0.0407161874003708,-0.2910842292141169,0.057981064325571,0.0435646995902061,0.0365921035408973,0.3704478442668915,standing
1783090420795375400,1.479375244140625,0.2804721612416208,-0.2856172325124964,-0.0013888240098953,0.0381699465215206,-0.0063030626624822,0.3798961937427521,standing
1783090420805420300,1.489420166015625,0.3479519985355436,-0.3380029975816607,-0.0892021320194006,0.0245558656752109,-0.0324049703776836,0.3782849907875061,standing
1783090420815464400,1.49946435546875,0.3524045940302312,-0.4280994480922818,-0.0725730687797069,0.0088181504979729,-0.0475587174296379,0.3645938336849212,standing
1783090420825509400,1.50950927734375,0.285931449560821,-0.3933936800878495,-0.0056458969324827,0.0012094993144273,-0.067073293030262,0.3493448495864868,standing
1783090420835553300,1.51955322265625,0.1848804743155837,-0.3773092816514894,0.0157020115226507,0.0156762599945068,-0.0849904492497444,0.3309792578220367,standing
1783090420845597400,1.529597412109375,0.0820449537411332,-0.2929608732735738,0.0552390721410512,0.0407563149929046,-0.0908355563879013,0.3107360303401947,standing
1783090420855642400,1.539642333984375,0.0774069186769425,-0.23846191544272,0.1764677430182695,0.0556214749813079,-0.1014440059661865,0.2856414318084717,standing
1783090420865686500,1.5496865234375,0.1047653195932507,-0.1699093708833679,0.2157522901803255,0.0599650889635086,-0.1079860627651214,0.2555873990058899,standing
1783090420875731500,1.5597314453125,0.1219417875826358,-0.1209318068224936,0.1073550438255071,0.0640536472201347,-0.0976357534527778,0.2161308079957962,standing
1783090420885775400,1.569775390625,0.0991948259845375,-0.1291133962450548,0.0217927296131849,0.0635244771838188,-0.0707820355892181,0.1741154491901397,standing
1783090420895820300,1.5798203125,0.0140371470503509,-0.1264334364460781,0.0002232873618602,0.0529537349939346,-0.0372041463851928,0.1359494924545288,standing
1783090420905864400,1.589864501953125,0.0229822316586971,-0.1908699605213478,0.103224227631092,0.0373398885130882,-0.0050139846280217,0.1007084175944328,standing
1783090420915909400,1.599909423828125,-0.0678910484433174,-0.2413797756507992,0.1890688659161329,0.0164254214614629,0.0279159620404243,0.0693060755729675,standing
1783090420925953300,1.609953369140625,-0.1300209030114114,-0.2438875572206452,0.2111076792448759,-0.0104975402355194,0.0642667785286903,0.0314689539372921,standing
1783090420935998500,1.61999853515625,-0.1166946807093918,-0.2034657496569678,0.2040554226458072,-0.0139021379873156,0.0742410197854042,-0.0100776776671409,standing
1783090420946042400,1.63004248046875,-0.0256346458636224,-0.0883392681123688,0.1661678828001022,0.0110285123810172,0.0818653777241706,-0.0497028529644012,standing
1783090420956086300,1.640086181640625,-0.0151307875059545,-0.0548223445663228,0.1796685848861932,0.0234505794942379,0.0709536224603653,-0.0821980908513069,standing
1783090420966131500,1.65013134765625,-0.1099744325436651,-0.1227913536166772,0.124254156178236,0.0081421975046396,0.0470456294715404,-0.0995890721678733,standing
1783090420976175400,1.66017529296875,-0.1272577219083905,-0.1715157101014628,0.0347977571368217,-0.0235518831759691,0.0056842141784727,-0.0960300713777542,standing
1783090420986220300,1.67022021484375,-0.0075713120371103,-0.1895009737230837,0.1002139398992061,-0.0432936288416385,-0.0499145984649658,-0.0772614404559135,standing
1783090420996264400,1.680264404296875,0.115348672927916,-0.185264249468781,0.075549454241991,-0.037600640207529,-0.1023257225751876,-0.0564029589295387,standing
1783090421006309600,1.6903095703125,0.1064734386853873,-0.2020377992130816,-0.0360199924081563,-0.0111072473227977,-0.1238989308476448,-0.0483056157827377,standing
1783090421016353300,1.700353271484375,0.0858054753184318,-0.1894389778701588,-0.0559223782300949,0.0265150535851717,-0.1516506224870681,-0.0487458407878875,standing
1783090421026398500,1.7103984375,0.22699454581514,-0.1781687017172575,0.0434200395315885,0.05209232121706,-0.1638841181993484,-0.0571928545832634,standing
1783090421036442600,1.720442626953125,0.1906092272259295,-0.1339115903070196,0.0571715015083551,0.0520741268992424,-0.1577790230512619,-0.0711688622832298,standing
1783090421046486300,1.730486328125,0.050330841833353,-0.1170604452818632,0.0682856007188558,0.0387929454445838,-0.1491863280534744,-0.0828356370329856,standing
1783090421056531500,1.740531494140625,0.1217757833659648,-0.0916581468693912,0.1008539913684129,0.0262080859392881,-0.1362111717462539,-0.0856250301003456,standing
1783090421066575400,1.750575439453125,0.1834061639793217,-0.0456366196025162,0.0249152455478906,0.008699931204319,-0.1203741580247879,-0.0866508856415748,standing
1783090421076620300,1.760620361328125,0.2991220627844334,0.0289439530747011,-0.052132338297367,-0.0043233972974121,-0.0943077281117439,-0.0694461464881897,standing
1783090421086664400,1.77066455078125,0.4244491088911891,0.1078133820522576,-0.0955289969533681,-0.0191031415015459,-0.0668223053216934,-0.0440318658947944,standing
1783090421096709400,1.78070947265625,0.4299857002303004,0.1535437808854505,-0.1584457641154527,-0.0315364263951778,-0.033832773566246,-0.0157152004539966,standing
1783090421106753300,1.790753173828125,0.380828578351438,0.1678406748505309,-0.1772661999195814,-0.0425986647605896,-0.0054517332464456,0.0173476785421371,standing
1783090421116798500,1.800798583984375,0.2996941635839641,0.1948817169133573,-0.1873071169406175,-0.034512385725975,0.0280666705220937,0.0524372979998588,standing
1783090421126842600,1.810842529296875,0.1532844358295202,0.1852734922211617,-0.147704589870572,-0.0166849177330732,0.0626025423407554,0.0867947414517402,standing
1783090421136887300,1.82088720703125,-0.0031228081956505,0.212770570955798,-0.0163344642072916,-0.005765554960817,0.088823989033699,0.1126836612820625,standing
1783090421146931500,1.830931396484375,-0.0506705951817333,0.2413844883585348,0.1464250714540481,-0.0093277990818023,0.0991650372743606,0.1233924925327301,standing
1783090421156975600,1.8409755859375,-0.0617338409878313,0.2457316872499883,0.1916658966720104,-0.0170466117560863,0.1080626919865608,0.12200977653265,standing
1783090421167020300,1.851020263671875,-0.0692711046248674,0.2050784090179949,0.1977472624123096,-0.0293639991432428,0.1124071106314659,0.1108884215354919,standing
1783090421177064400,1.861064453125,-0.0241813783153891,0.1704510400120168,0.1661351495742797,-0.0429141633212566,0.1003041043877601,0.0941179618239402,standing
1783090421187109400,1.871109375,-0.021411182949692,0.0785172545390203,0.0907937851250171,-0.0644071996212005,0.0964957848191261,0.0757016688585281,standing
1783090421197153300,1.8811533203125,-0.0879123844698071,-0.0200385428896173,0.0083382047563791,-0.1044367402791976,0.0865209624171257,0.0529749244451522,standing
1783090421207198500,1.891198486328125,-0.0643276568733155,-0.0960213835801929,-0.0342120662033557,-0.1425468474626541,0.0724155306816101,0.0269582383334636,standing
1783090421217242400,1.901242431640625,-0.0055006432428956,-0.1095045134769752,-0.0211216984838247,-0.1591491401195526,0.0355880595743656,-0.0031638648360967,standing
1783090421227287300,1.911287353515625,0.0192737325295805,-0.0497406573878601,-0.0693108521133661,-0.1249861121177673,-0.0259796995669603,-0.0238853897899389,standing
1783090421237331500,1.92133154296875,0.075072922771424,-0.0122843120336532,-0.1755856994867324,-0.0564072355628013,-0.0707379952073097,-0.0331573151051998,standing
1783090421247375600,1.931375732421875,0.1166037875555455,-0.0693623265722766,-0.110042675474286,0.0012810952030122,-0.1086318492889404,-0.0400074981153011,standing
1783090421257420300,1.941420166015625,0.0419042281411588,-0.1154198019353672,-0.019810031363368,0.0224774815142154,-0.1443432569503784,-0.0469729043543338,standing
1783090421267464400,1.95146435546875,0.0726727297618985,-0.1158095319053158,0.0520031589597463,0.0154906762763857,-0.1520192921161651,-0.0576942600309848,standing
1783090421277509400,1.96150927734375,0.0933142435133457,-0.1154466168770566,0.0957744961470365,-0.0094762351363897,-0.141662448644638,-0.0753111392259597,standing
1783090421287553300,1.97155322265625,0.1458896494030952,-0.1328016197711229,0.1598281583845615,-0.0362694971263408,-0.1220991238951683,-0.1032628789544105,standing
1783090421297598500,1.981598388671875,0.1903613899447023,-0.1225259806787595,0.1410878020793199,-0.0680599585175514,-0.1046074852347374,-0.1358812153339386,standing
1783090421307642400,1.991642333984375,0.2475669398531317,-0.1602321360755711,0.0613531711071729,-0.1075421199202537,-0.0854255333542823,-0.1716450750827789,standing
1783090421317687600,2.0016875,0.2266645832084119,-0.2391646568845957,-0.0158984108775854,-0.1439035832881927,-0.0650754272937774,-0.2118622660636901,standing
1783090421327731500,2.0117314453125,0.1395147075437009,-0.2300688752265647,-0.0727671300470828,-0.1567530632019043,-0.0421381518244743,-0.2337862104177475,standing
1783090421337776400,2.0217763671875,0.0722245476029813,-0.1660846249634399,-0.0453735116869211,-0.1382613033056259,-0.0438820421695709,-0.2312350571155548,standing
1783090421347820300,2.0318203125,0.1303055651716888,-0.1181442949958145,0.0288765503942966,-0.0966081321239471,-0.0767294764518737,-0.2217864245176315,standing
1783090421357864400,2.041864501953125,0.0960774246163666,-0.0926092370491474,-0.0313771350383758,-0.0443642027676105,-0.1120485290884971,-0.2085791230201721,standing
1783090421367909400,2.051909423828125,0.0412955947235226,-0.0256927692590281,-0.0418716410458087,-0.004732372239232,-0.1394196897745132,-0.2017923295497894,standing
1783090421377953300,2.061953369140625,0.1144290738649666,-0.004292290366441,0.0615092384517192,0.0119738858193159,-0.1483477056026458,-0.1963140666484832,standing
1783090421387998500,2.07199853515625,0.07291238373667,-0.0662944634342566,0.1441185480773449,0.0202230270951986,-0.1596232503652572,-0.2090226709842682,standing
1783090421398042400,2.08204248046875,-0.0318273630239069,-0.1291618750292807,0.1289981358349323,0.0222290996462106,-0.1534778624773025,-0.2274460196495056,standing
1783090421408087600,2.092087646484375,-0.0710413291677832,-0.1409980414366349,0.1867073974817991,0.0094291493296623,-0.1601347029209137,-0.2371431142091751,standing
1783090421418131500,2.10213134765625,-0.0114642278224229,-0.1589012162653729,0.1952320647209882,-0.008278839290142,-0.1682617962360382,-0.2434514462947845,standing
1783090421428176400,2.11217626953125,0.0252452081546187,-0.2456646498957648,0.0791273127287626,-0.0241105332970619,-0.1653629541397094,-0.2613950073719024,standing
1783090421438220500,2.122220458984375,0.0546319000281393,-0.2962869489563628,-0.0178600663393735,-0.0243939328938722,-0.1588973551988601,-0.2813258171081543,standing
1783090421448264400,2.132264404296875,0.0502675673387944,-0.2780225030671805,-0.0367056365847587,-0.0184148699045181,-0.1428568661212921,-0.2870910465717315,standing
1783090421458309400,2.142309326171875,0.0644959991775453,-0.2363521567471325,0.0252829098165035,-0.0014641907764598,-0.1238187402486801,-0.2907492816448211,standing
1783090421468353500,2.152353515625,0.0967361807860434,-0.1263583984484896,0.1028980644166469,0.0178248193114995,-0.1040937751531601,-0.286422461271286,standing
1783090421478398200,2.162398193359375,0.0490234124965965,-0.0628532004065811,0.1394932263642549,0.0250501483678817,-0.0823855772614479,-0.2868389785289764,standing
1783090421488442400,2.1724423828125,-0.0103716102801263,-0.1014343485396355,0.1660281820684671,0.0166742410510778,-0.0720077753067016,-0.2875827848911285,standing
1783090421498487600,2.182487548828125,0.0549456421524286,-0.0799152482360601,0.1713695430964231,0.0097385328263044,-0.0695763155817985,-0.2939032018184662,standing
1783090421508531500,2.192531494140625,0.1721994180493056,-0.0436221379749476,0.1040723688930273,-0.0051512010395526,-0.0683392733335495,-0.2990812063217163,standing
1783090421518576400,2.202576416015625,0.103525402534753,0.0362143459364771,-0.0347930809617042,-0.0274164341390132,-0.0453012101352214,-0.2974584698677063,standing
1783090421528620500,2.21262060546875,-0.0596370148390531,0.0336397096754983,-0.0636988574504852,-0.0688522905111312,-0.0208427421748638,-0.2986478209495544,standing
1783090421538665200,2.222665283203125,-0.0828719060845673,-0.0221903140960261,0.0231686941415071,-0.1194419637322425,0.0070852967910468,-0.304612785577774,standing
1783090421548709400,2.23270947265625,-0.0467576595216989,-0.0493964470600709,0.0788163470834493,-0.1657026708126068,0.0340359546244144,-0.3145903050899505,standing
1783090421558753500,2.24275341796875,-0.0564199524886906,0.0073571578297764,0.0842985778868198,-0.1917365193367004,0.057462241500616,-0.3252114951610565,standing
1783090421568798200,2.252798095703125,-0.0465844949118793,0.0977230363989248,0.0127823246836662,-0.1735449880361557,0.0910676047205925,-0.3190281689167022,standing
1783090421578842400,2.26284228515625,-0.0581977758161723,0.1995799577321857,-0.0506342086941003,-0.1275376230478286,0.1261409670114517,-0.2979454100131988,standing
1783090421588887600,2.272887451171875,-0.0970291723832488,0.2253986549258232,0.0327186127752065,-0.0752576440572738,0.148926168680191,-0.2784952819347381,standing
1783090421598931200,2.28293115234375,-0.0571849455118179,0.1501913651850074,0.097228202086687,-0.036856185644865,0.1581862568855285,-0.2695387899875641,standing
1783090421608976400,2.292976318359375,-0.0299152457922697,0.0464583477815613,0.0815910724937915,-0.0254855565726757,0.1610392928123474,-0.2674697935581207,standing
1783090421619020300,2.303020263671875,-0.069541299868375,-0.0563978867873549,0.0565957474470138,-0.0263407900929451,0.1502995193004608,-0.2661802768707275,standing
1783090421629065200,2.313065185546875,-0.0986706559799611,-0.1123726162591949,0.0548936197042465,-0.0316314250230789,0.1406359821557998,-0.2573806643486023,standing
1783090421639109400,2.323109375,-0.0927396584957838,-0.1371791407356038,0.0467991605758666,-0.0374064818024635,0.1247125118970871,-0.2433106750249862,standing
1783090421649153300,2.3331533203125,-0.0995196740247309,-0.0680782781111076,0.0375450100183486,-0.0243151783943176,0.1077684164047241,-0.2209702134132385,standing
1783090421659198200,2.3431982421875,-0.0581302635379135,-0.0446185286011546,0.0595978518724441,-0.0016590845771133,0.1002011522650718,-0.2075817734003067,standing
1783090421669242400,2.353242431640625,-0.0982531612202525,-0.0279770442713052,0.1362210728257894,0.0044001396745443,0.091150127351284,-0.1956228464841842,standing
1783090421679287600,2.36328759765625,-0.0891806508399546,-0.0359219753937795,0.2312754380047321,-0.0098760575056076,0.0853156521916389,-0.1972666084766388,standing
1783090421689331200,2.373331298828125,-0.050537762582302,-0.08145400211066,0.2469254270792007,-0.0485824421048164,0.0802045091986656,-0.2045399844646453,standing
1783090421699376400,2.38337646484375,-0.069269935581088,-0.1171843273898586,0.2528898884415626,-0.0947421193122863,0.0805680751800537,-0.2059378772974014,standing
1783090421709420300,2.393420166015625,-0.0959678267620503,-0.1192981777386739,0.2579489253968,-0.1263008415699005,0.089022547006607,-0.1965488940477371,standing
1783090421719465200,2.40346533203125,-0.0973468600302934,-0.1331068497953936,0.186185419434309,-0.1313607990741729,0.1049297153949737,-0.1822232902050018,standing
1783090421729509400,2.41350927734375,-0.0729072691701352,-0.1677612164061516,0.1394867966234683,-0.112916812300682,0.1153498664498329,-0.1617214679718017,standing
1783090421739553300,2.42355322265625,-0.0628774580650031,-0.1867590911364182,0.1055178915262222,-0.0875939801335334,0.1134177893400192,-0.1421577483415603,standing
1783090421749598200,2.43359814453125,-0.0129550509020686,-0.1520790786277502,0.0383341145694255,-0.0689896717667579,0.1010037288069725,-0.1229507625102996,standing
1783090421759642400,2.443642333984375,-0.0254034674562513,-0.1444690785480663,-0.0633732787579298,-0.0479948222637176,0.0885238200426101,-0.1064926981925964,standing
1783090421769687300,2.453687255859375,-0.0241240951701998,-0.1220247531583532,-0.0955751741826534,-0.0197634492069482,0.0734202340245246,-0.0881294012069702,standing
1783090421779731200,2.463731201171875,0.0366508376576006,-0.1378140045730397,-0.0838590174257755,0.0257041826844215,0.033182818442583,-0.0651384741067886,standing
1783090421789776400,2.4737763671875,0.0843142138473689,-0.110711879972741,-0.062156888705492,0.068970963358879,-0.004658302757889,-0.0560989081859588,standing
1783090421799820500,2.483820556640625,0.0564804505042731,-0.0748348031666129,-0.0282382524907588,0.081596739590168,-0.0380620658397674,-0.0615623854100704,standing
1783090421809865200,2.493865234375,-0.0115811322003602,-0.0924170389452949,0.0747457366436719,0.0478800572454929,-0.0638822093605995,-0.0642433911561966,standing
1783090421819909400,2.503909423828125,-0.0769935155704617,-0.0825932718062773,0.1775637215614318,-0.0049676662310957,-0.0701020956039428,-0.0568719580769538,standing
1783090421829954300,2.513954345703125,-0.0749167092964053,-0.0804993682669475,0.2496779406577348,-0.0525804571807384,-0.068920187652111,-0.048667024821043,standing
1783090421839998200,2.523998291015625,-0.0456542283244431,-0.076691756144911,0.2319301025211811,-0.0796478167176246,-0.0539404638111591,-0.04709954559803,standing
1783090421850042400,2.53404248046875,-0.0312147840835154,-0.0482940753087401,0.1571966408371925,-0.0889720767736435,-0.0365116745233535,-0.0399870425462722,standing
1783090421860087300,2.54408740234375,-0.0067890756182372,-0.0114134474832564,0.1371434483677149,-0.0974815338850021,-0.0398420765995979,-0.032565951347351,standing
1783090421870131200,2.554131103515625,0.0246229846030473,0.0183837248872965,0.1075292313486337,-0.1076944842934608,-0.0437159165740013,-0.0193380285054445,standing
1783090421880176400,2.56417626953125,0.0163163440287113,0.0354062809566035,0.041693946391344,-0.1130634248256683,-0.0495651960372924,0.001252072979696,standing
1783090421890220300,2.57422021484375,-0.0582224718660116,-0.0647444575132802,-0.0455161350280046,-0.1024374142289161,-0.0454679243266582,0.0175524838268756,standing
1783090421900265200,2.58426513671875,-0.0841353501491248,-0.1753351953243836,-0.0440530767381191,-0.0735982656478881,-0.0439905598759651,0.0190520379692316,standing
1783090421910309400,2.594309326171875,-0.1685651532001793,-0.2587145394744351,-0.0825719002246856,-0.0241665299981832,-0.0430011972784996,0.0047135790809988,standing
1783090421920354300,2.604354248046875,-0.005800941363722,-0.2181887966122478,0.0179775552392005,0.0281519684940576,-0.0603804066777229,0.0004372161347419,standing
1783090421930398200,2.614398193359375,0.1915741267353296,-0.1612309378545731,0.1691997978419065,0.0540645271539688,-0.0764379352331161,0.0022984994575381,standing
1783090421940443400,2.624443359375,0.1496747208997607,-0.1236129721978679,0.1419943955302238,0.0425306446850299,-0.0706136003136634,-0.0134482383728027,standing
1783090421950487300,2.6344873046875,0.1055656761907041,-0.1439993421444669,0.1432937876909971,0.0033209221437573,-0.0458038598299026,-0.0407738722860813,standing
1783090421960531200,2.64453125,0.0506609505705535,-0.2053631807761266,0.1464046131879091,-0.0468063727021217,0.0013354499824345,-0.0747738555073738,standing
1783090421970576400,2.654576416015625,-0.0513905800193548,-0.1777156241875142,0.1284375793427228,-0.092173583805561,0.0477474257349967,-0.099055491387844,standing
1783090421980620300,2.664620361328125,-0.0729826724939048,-0.1261747489772736,0.1395598618596792,-0.1266927719116211,0.0776831805706024,-0.1067482978105545,standing
1783090421990665500,2.67466552734375,-0.0892700826890766,-0.1317490785108879,0.1379033268243074,-0.1511453986167907,0.0841059312224388,-0.1035628914833068,standing
1783090422000709400,2.68470947265625,-0.0372793448194861,-0.1127742923952639,0.1341150404572486,-0.1565510779619217,0.0682478696107864,-0.088877685368061,standing
1783090422010754300,2.69475439453125,-0.0012904782019555,-0.1066093400247395,0.1080927104502916,-0.1237451881170272,0.0504190735518932,-0.0752838477492332,standing
1783090422020798200,2.704798095703125,-0.0203388775430619,-0.1386955731805413,0.0247153390616178,-0.057596568018198,0.0400428548455238,-0.0730347484350204,standing
1783090422030843100,2.714843017578125,0.0376212901249527,-0.1278380060143768,-0.0283779532223939,0.0006909754592925,0.0458453521132469,-0.0777932852506637,standing
1783090422040887300,2.72488720703125,0.1274737027466297,-0.0792605837196111,-0.0018237082958221,0.0217315405607223,0.0502138175070285,-0.0817380845546722,standing
1783090422050931200,2.73493115234375,0.2263601934343576,-0.1250700756710022,0.0414110377967357,0.0097563695162534,0.0562512055039405,-0.073530226945877,standing
1783090422060976400,2.744976318359375,0.1259250119999051,-0.1722237487729638,0.0176993228197097,-0.0098064122721552,0.0752914771437645,-0.0716652125120163,standing
1783090422071020300,2.755020263671875,0.0151784260399639,-0.1850116994798183,0.0737491268217563,-0.0122999306768178,0.0844791159033775,-0.0736402124166488,standing
1783090422081065500,2.7650654296875,0.043297874456644,-0.1550328869320452,0.0682476067960262,0.0018888593185693,0.0829288884997367,-0.0672686025500297,standing
1783090422091109400,2.775109375,0.0450710216090083,-0.1441327227331698,-0.0008639233529567,0.014877893961966,0.0730719938874244,-0.0576290227472782,standing
1783090422101154300,2.785154296875,0.0682619275823235,-0.1540165494963526,-0.0235351893663406,0.0189246982336044,0.0643661618232727,-0.044796910136938,standing
1783090422111198500,2.795198486328125,0.0564665681093931,-0.1483832928497344,0.0123754974484443,0.012188765220344,0.0627474933862686,-0.0347045958042144,standing
1783090422121243100,2.8052431640625,-0.0105338151045143,-0.1632581328332424,0.0357832610428333,-0.0037317362148314,0.0629023686051368,-0.0332180932164192,standing
1783090422131287300,2.815287353515625,-0.0153808167442679,-0.1650558299049735,0.0912275003671646,-0.0190971102565526,0.0595542378723621,-0.0337102450430393,standing
1783090422141331500,2.82533154296875,0.0327969387084245,-0.1305493107996881,0.1113999353021383,-0.0196422282606363,0.0549912676215171,-0.0318520814180374,standing
1783090422151376100,2.835376220703125,0.130959645166248,-0.1275469141133129,0.0627156916320323,-0.017018748447299,0.0559382885694503,-0.0372628271579742,standing
1783090422161420300,2.845420166015625,0.1218761750005185,-0.0954312356673181,-0.0173737441271543,-0.0215777698904275,0.0597574524581432,-0.0428141206502914,standing
1783090422171465500,2.855465576171875,0.1045167516596615,-0.0583753243401646,-0.0483311924487352,-0.0223498195409774,0.0662579610943794,-0.0450474470853805,standing
1783090422181509400,2.86550927734375,0.0422492421865463,-0.0605986264128237,-0.0318798238635063,-0.01716198772192,0.0748328864574432,-0.0377675555646419,standing
1783090422191554300,2.87555419921875,-0.0233089793950319,-0.08835216412656,-0.0290384629577398,-0.0060544749721884,0.0807554945349693,-0.0325493589043617,standing
1783090422201598500,2.885598388671875,-0.0264313491992652,-0.1152276768967509,0.0611865823686122,-0.0063311727717518,0.0720444768667221,-0.0293696802109479,standing
1783090422211643100,2.89564306640625,-0.0528286499984562,-0.0852775789868086,0.1298456925749778,-0.011582925915718,0.0586570352315902,-0.0286716651171445,standing
1783090422221687300,2.905687255859375,-0.0853897341243922,-0.0349887496642768,0.1551437999606132,-0.0212341286242008,0.0427590645849704,-0.0337127670645713,standing
1783090422231732500,2.915732421875,-0.0614731442250311,-0.0277934313327074,0.0904033245027065,-0.0240256544202566,0.0293889287859201,-0.0389544032514095,standing
1783090422241776000,2.925776123046875,-0.0995532840333879,-0.0083846742466092,0.0227647895157337,-0.0186688899993896,0.0112668480724096,-0.0372899174690246,standing
1783090422251820300,2.9358203125,-0.0755661131158471,-0.0110950291838496,0.0138508306980133,-0.0173128098249435,-0.0091702500358223,-0.0361128002405166,standing
1783090422261865500,2.945865478515625,-0.0113553606204688,-0.031603856466338,0.0316489377170801,-0.0209310054779052,-0.0408732220530509,-0.032319076359272,standing
1783090422271909000,2.9559091796875,0.0995823639973998,-0.0381196681011468,0.0507470214188098,-0.0268597342073917,-0.0733502060174942,-0.0241793934255838,standing
1783090422281954300,2.965954345703125,0.1071596673838794,-0.041541459243372,0.0372498264640569,-0.0330291390419006,-0.094041883945465,-0.0213192794471979,standing
1783090422291998500,2.97599853515625,0.1099181723117828,-0.0892331116795539,0.0454927541524171,-0.0508536770939827,-0.0979436859488487,-0.0211855880916118,standing
1783090422302043100,2.986043212890625,0.1091314058482646,-0.0569557398658245,0.063203182888031,-0.0703772082924842,-0.0872207805514335,-0.0132614932954311,standing
1783090422312087300,2.99608740234375,0.1219372575379908,-0.0602345423407852,0.1133738657236099,-0.0771970301866531,-0.0678271129727363,-0.0016834014095366,standing
1783090422322132200,3.00613232421875,0.1112288165189325,-0.059004489089176,0.0965039794653654,-0.0719011723995208,-0.0456895343959331,0.0082889469340443,standing
1783090422332176100,3.016176025390625,0.1025717550717294,-0.0830503313913941,0.1030588079363107,-0.066760204732418,-0.0400926358997821,0.0125002032145857,standing
1783090422342220300,3.02622021484375,0.1032842872552573,-0.0999992011699825,0.0928337665200233,-0.0657165050506591,-0.0308898985385894,0.0152982482686638,standing
1783090422352265500,3.036265380859375,0.1252753159195184,-0.1207314619448036,0.0571095421880483,-0.0692728906869888,-0.0226633939892053,0.0181707348674535,standing
1783090422362309000,3.04630908203125,0.1429477507323026,-0.1265798226468265,0.0024696049839258,-0.0745061263442039,-0.0139376716688275,0.0237614326179027,standing
1783090422372354300,3.056354248046875,0.0967630687929689,-0.1357570355106145,-0.05442074149549,-0.0664572492241859,-0.0054051699116826,0.0252296328544616,standing
1783090422382398500,3.0663984375,0.1284232585564255,-0.0986885569628328,-0.0533294391274452,-0.0350048281252384,0.0004196846857666,0.0275642201304435,standing
1783090422392443400,3.076443359375,0.1510667597800493,-0.0075051879983395,-0.0354272872120142,0.0053897341713309,0.0054341508075594,0.0388909131288528,standing
1783090422402487300,3.0864873046875,0.1286015377327799,-0.0241556593522429,0.0282744928479194,0.0311714187264442,0.0092192534357309,0.0532180704176425,standing
1783090422412532200,3.0965322265625,0.0713566787272691,-0.070158189657703,0.0911509279996156,0.0261654742062091,0.0075510498136281,0.056035429239273,standing
1783090422422576400,3.106576416015625,0.0400151995241642,-0.1316589525420218,0.0909691416919231,-0.00245440332219,0.0190285835415124,0.0530430302023887,standing
1783090422432620300,3.116620361328125,0.0614490326970815,-0.1594344098266214,0.0650561172783374,-0.0237572956830263,0.0327161662280559,0.0490709282457828,standing
1783090422442665200,3.126665283203125,0.0871766175411641,-0.1503179872393608,0.0531634349107742,-0.0381845347583293,0.0489638894796371,0.0469067171216011,standing
1783090422452709400,3.13670947265625,0.1001947968073189,-0.1619462465170771,0.0207207164674997,-0.0378489792346954,0.0539983287453651,0.0481650605797767,standing
1783090422462754300,3.14675439453125,0.0936784006506204,-0.1539472105871886,0.0140688573628664,-0.0314183235168457,0.0547685883939266,0.0513211674988269,standing
1783090422472798500,3.156798583984375,0.0771900610558688,-0.1196512654926627,0.0130377607494592,-0.0237436257302761,0.0573041848838329,0.0565481521189212,standing
1783090422482843400,3.166843505859375,0.0201426243185997,-0.0755715199433267,0.020602643045783,-0.0191574953496456,0.0583662986755371,0.0519024096429348,standing
1783090422492887300,3.17688720703125,-0.0010857494100928,-0.0633911797408014,-0.0318184490650892,-0.0230313278734684,0.0588150396943092,0.041242841631174,standing
1783090422502932200,3.18693212890625,0.0059225219167768,-0.0640847149629145,-0.0099345340371131,-0.0333456955850124,0.0593836568295955,0.032877642661333,standing
1783090422512976400,3.196976318359375,-0.0031976269975304,-0.0667080492038279,0.0357826765209436,-0.0395809561014175,0.0497115887701511,0.0286828987300395,standing
1783090422523021300,3.207021240234375,-0.0263248200848698,-0.1299326402060687,0.0511065023809671,-0.0348071902990341,0.0169670656323432,0.0248774364590644,standing
1783090422533065200,3.217065185546875,0.0807820941984653,-0.1128920004907995,0.0656622664779424,-0.0288744661957025,-0.0178460422903299,0.0244923438876867,standing
1783090422543109400,3.227109375,0.1101506658934056,-0.0905758315254002,0.0231640179663896,-0.0203531607985496,-0.0422130040824413,0.0275414064526557,standing
1783090422553154300,3.237154296875,0.0853293822392821,-0.1113002743199467,0.0106382983922958,-0.0216839425265789,-0.0554917901754379,0.0237762294709682,standing
1783090422563198200,3.2471982421875,0.0567279955245554,-0.111676048829779,0.0021510405540466,-0.027262557297945,-0.0582729652523994,0.0172150023281574,standing
1783090422573243400,3.257243408203125,0.0629869097888469,-0.1082802689116448,0.0056207624912261,-0.033212061971426,-0.0533293411135673,0.0069820713251829,standing
1783090422583287300,3.267287353515625,0.0493269254878163,-0.1072941074185073,0.0301139832347631,-0.0337498448789119,-0.0437523834407329,-0.0099870562553405,standing
1783090422593332200,3.277332275390625,0.0009513093754649,-0.1301692254409193,0.0318149419337511,-0.0337676852941513,-0.0402015894651412,-0.0304617024958133,standing
1783090422603376400,3.28737646484375,0.001506897431612,-0.109700949364528,0.0734644646614789,-0.0340697728097438,-0.0415754429996013,-0.0503323525190353,standing
1783090422613421300,3.29742138671875,0.0082782912626862,-0.1031713284000754,0.0948848538309335,-0.03896439447999,-0.0427997000515461,-0.070228561758995,standing
1783090422623465000,3.30746484375,-0.010365618930757,-0.140726348355785,0.1049883146941661,-0.0572019889950752,-0.0428926423192024,-0.0841276049613952,standing
1783090422633508900,3.3175087890625,-0.0182794607952237,-0.150981054257974,0.1208645137399435,-0.0778625309467315,-0.0484549216926097,-0.0856562554836273,standing
1783090422643554000,3.327553955078125,0.0335794673882424,-0.1578763667296618,0.1075122802138328,-0.0842962339520454,-0.0521142929792404,-0.0843857303261756,standing
1783090422653598000,3.337597900390625,0.0690421181745827,-0.1489385155797004,0.0441734882473945,-0.0763621404767036,-0.0500567369163036,-0.0803808718919754,standing
1783090422663643100,3.34764306640625,0.0786921361818909,-0.1339560505032539,0.0331271935760974,-0.0571388229727745,-0.0358303636312484,-0.0751522853970527,standing
1783090422673687000,3.35768701171875,0.0465983773067593,-0.1331592741023749,0.066480012601614,-0.036468431353569,-0.0169283095747232,-0.0738662481307983,standing
1783090422683732000,3.36773193359375,-0.0064575055763125,-0.1503712517965585,0.1051613331735134,-0.027133259922266,-0.0018624602816998,-0.0699411407113075,standing
1783090422693776100,3.377776123046875,0.0194751003205776,-0.1283450787536799,0.1667640951275825,-0.0290938783437013,0.0060820155777037,-0.0551419518887996,standing
1783090422703821000,3.387821044921875,0.0825512958280742,-0.1121721617836505,0.1604436599344015,-0.0367756634950637,0.0022181705571711,-0.0410123020410537,standing
1783090422713865000,3.397864990234375,0.1129769753605127,-0.1517077610973268,0.1012035354584455,-0.052440907806158,-0.0135839618742465,-0.032060083001852,standing
1783090422723909000,3.4079091796875,0.1253691316828131,-0.1702101439282298,0.0363449865788221,-0.0602489188313484,-0.032530203461647,-0.0151044549420475,standing
1783090422733954000,3.4179541015625,0.1327707862414419,-0.1424689542394131,-0.0239478618204593,-0.0475736036896705,-0.0482865273952484,-0.0009217897895723,standing
1783090422743998000,3.427998046875,0.1545871889911592,-0.1191177431378513,-0.0660568187534809,-0.0203666128218173,-0.0626420751214027,0.0157832186669111,standing
1783090422754043100,3.438043212890625,0.1522644451320171,-0.1190291150063276,-0.133392571401596,0.0021437562536448,-0.0685750618577003,0.0301003716886043,standing
1783090422764087000,3.448087158203125,0.087823975533992,-0.1765564442150294,-0.1611561921179294,0.018824303522706,-0.0737691596150398,0.0363476015627384,standing
1783090422774132000,3.458132080078125,0.0324886034116148,-0.2035090408094227,-0.0853600696384906,0.0292202178388834,-0.0801082774996757,0.0378360450267791,standing
1783090422784176000,3.468176025390625,0.0794089061491191,-0.1704552777957171,0.0448217230230569,0.0236215908080339,-0.0881079211831092,0.0416039489209651,standing
1783090422794220800,3.478220703125,0.0552821806304156,-0.1679995552066713,0.0908814634084701,0.0072793699800968,-0.08778727799654,0.0339332446455955,standing
1783090422804265000,3.488264892578125,0.050047348716855,-0.1696093284908682,0.1033387939214706,-0.0131248626857995,-0.0786211118102073,0.0199992731213569,standing
1783090422814309000,3.49830908203125,0.0074358490891754,-0.1266619479723274,0.1182166295796632,-0.028007673099637,-0.0687391832470893,0.0100651495158672,standing
1783090422824354000,3.50835400390625,-0.0148639532633125,-0.1110900656353682,0.1382277364730834,-0.0265579242259264,-0.0620192363858222,-0.0023029774893075,standing
1783090422834398000,3.51839794921875,-0.0119002811521291,-0.0849636907320469,0.1010918917775154,-0.0171460472047328,-0.0540332198143005,-0.0146917374804615,standing
1783090422844443100,3.528443115234375,0.0611535568818449,-0.0802090435508638,0.1017009635865688,-0.0114299301058053,-0.0460794568061828,-0.0205818470567464,standing
1783090422854487000,3.538487060546875,0.1276587039247155,-0.049003465687111,0.0736491735786199,-0.0105758551508188,-0.0292410869151353,-0.0260461214929819,standing
1783090422864532000,3.548531982421875,0.1221292729787528,-0.0127766986604779,0.0371744231402874,-0.0122898109257221,-0.01326475571841,-0.0280628763139247,standing
1783090422874576100,3.558576171875,0.1140478194624185,-0.007892141489312,0.0222200151145458,-0.0119928680360317,0.0102589447051286,-0.0245877169072628,standing
1783090422884621000,3.56862109375,0.0612897504821419,-0.0275593303158879,0.0410714305788278,-0.0026108613237738,0.0373540185391902,-0.0166028272360563,standing
1783090422894665000,3.5786650390625,0.0236086929939687,-0.0518643350109458,0.1170633678913116,-0.000383127015084,0.0569934993982315,-0.0128973051905632,standing
1783090422904710100,3.588710205078125,0.0465364179864525,-0.0611930121093988,0.1123258179754018,-0.0056230695918202,0.0702571421861648,-0.0144145106896758,standing
1783090422914753800,3.59875390625,0.0745817782536149,-0.0841476251088082,0.0922159268826246,-0.0103722847998142,0.0852065309882164,-0.0164118837565183,standing
1783090422924798000,3.6087978515625,0.1195376490503549,-0.0840172767274081,0.129196288755536,-0.0144970491528511,0.0858161821961402,-0.0176778696477413,standing
1783090422934843100,3.618843017578125,0.1349050217911601,-0.0710894791584461,0.1008662663280963,-0.0182430520653724,0.077867716550827,-0.0122407600283622,standing
1783090422944887000,3.628886962890625,0.0929094621047377,-0.1193782207049429,-0.0028214871615171,-0.0238609407097101,0.0658031702041626,-0.0126437656581401,standing
1783090422954932000,3.638931884765625,0.0480450689837336,-0.1623609647978097,-0.0220317990660667,-0.0212060362100601,0.050651915371418,-0.011341480538249,standing
1783090422964976000,3.64897607421875,0.0106485275253653,-0.1386515148431062,0.0260346049666404,-0.0136099942028522,0.0336494594812393,-0.0199354980140924,standing
1783090422975021000,3.65902099609375,-0.0685356299571692,-0.1362614048361778,0.0366945306688547,-0.0110621470957994,0.023839708417654,-0.0276863612234592,standing
1783090422985065000,3.66906494140625,-0.1285742113344371,-0.1658806633565575,0.0852834972709417,-0.0142354927957057,0.0221043974161148,-0.0357513390481472,standing
1783090422995109000,3.679109130859375,-0.136658295199275,-0.2103589797694235,0.1039881977409124,-0.0241951830685138,0.0185346957296133,-0.0474633872509002,standing
1783090423005154000,3.689154052734375,-0.0410394280053675,-0.1995013395380228,0.095896661221981,-0.0323688983917236,0.0133382901549339,-0.0555679984390735,standing
1783090423015198000,3.699197998046875,0.0192300395183265,-0.188459647976607,0.0356669411867857,-0.0319507829844951,0.0124953985214233,-0.0571419261395931,standing
1783090423025243100,3.7092431640625,0.0943823111362755,-0.1600337639592587,0.0050946927905082,-0.0232729203999042,0.0102241449058055,-0.0556262470781803,standing
1783090423035287000,3.719287109375,0.09678908001706,-0.1357845080394297,-0.0538391422152519,-0.0148285692557692,0.014870561659336,-0.0496903285384178,standing
1783090423045332000,3.72933203125,0.124116939664632,-0.105061745256558,-0.0110100543141365,-0.0103696333244442,0.0205856245011091,-0.0410037674009799,standing
1783090423055376100,3.739376220703125,0.1854050827115774,-0.122033338323608,0.047544425985217,-0.0115885622799396,0.0170441530644893,-0.0326859168708324,standing
1783090423065421000,3.749421142578125,0.1607847284570336,-0.0893648483004421,0.0620429069370031,-0.01841433160007,0.0175335258245468,-0.0259362701326608,standing
1783090423075465000,3.75946484375,0.0908015300400555,-0.0669468263957649,0.0784539435118436,-0.024621095508337,0.0193743035197258,-0.0224049184471368,standing
1783090423085510000,3.769510009765625,0.0256917828783392,-0.0590714899107813,0.1002192005962133,-0.0280145313590765,0.0194720346480608,-0.0177206229418516,standing
1783090423095554000,3.779553955078125,-0.0570265400797128,-0.0903279211789369,0.0878162306189537,-0.0281484890729188,0.0116095840930938,-0.020134512335062,standing
1783090423105598000,3.789597900390625,-0.0422482192732393,-0.1232615649443119,0.0739262369543314,-0.0270759463310241,0.0016870289109647,-0.022806592285633,standing
1783090423115643100,3.79964306640625,-0.0196053025715053,-0.1134547489400953,0.0472995113134384,-0.0272562429308891,-0.0123483622446656,-0.0255954563617706,standing
1783090423125687000,3.80968701171875,-0.0228489606678485,-0.0934603739857673,0.0116653033524751,-0.0184027161449193,-0.0242401603609323,-0.0225039795041084,standing
1783090423135732000,3.81973193359375,0.0116625268734991,-0.1059528488773852,-0.0361129313886165,-0.0081301042810082,-0.0259592328220605,-0.0130268530920147,standing
1783090423145776000,3.829776123046875,0.0149504625029861,-0.1063075075339525,-0.0228892926782369,0.0101173482835292,-0.0288592260330915,-0.0017250664532184,standing
1783090423155821000,3.839821044921875,0.0549101324476301,-0.080655837470293,0.0256628490447998,0.0275570582598447,-0.0247361194342374,0.0089265126734972,standing
1783090423165865000,3.849864990234375,0.0634352380782365,-0.0802634771518409,0.0397872359871864,0.0257644318044185,-0.0196050405502319,0.0130378399044275,standing
1783090423175909000,3.8599091796875,0.0665589230567216,-0.0793965581241995,0.0985977368742227,0.0068211006000638,-0.0182164683938026,0.0142953842878341,standing
1783090423185954000,3.8699541015625,0.0584475127935409,-0.0446916669026017,0.1379109256088733,-0.019536767154932,-0.0225996617227792,0.0152717549353837,standing
1783090423195998000,3.879998046875,0.0150312726542353,-0.0715221714872866,0.1085311018675565,-0.0414425991475582,-0.0301904715597629,0.0101688718423247,standing
1783090423206043000,3.89004296875,-0.0202272338621318,-0.0928752675741911,0.0633335312694311,-0.0488991476595401,-0.0369132719933986,0.0071001858450472,standing
1783090423216087000,3.900087158203125,-0.0769791947841644,-0.0616458704434335,0.0307218860000371,-0.0396036505699157,-0.0514975413680076,0.0066767432726919,standing
1783090423226132000,3.910132080078125,-0.048148821619153,-0.0844528186004608,0.0206669404536485,-0.0234546307474374,-0.0745439305901527,0.0061782570555806,standing
1783090423236176100,3.920176025390625,0.014120733680576,-0.0795740335829555,-0.0519622424274682,-0.0059273014776408,-0.093109630048275,0.0004497973714023,standing
1783090423246221000,3.930220947265625,0.0181632870696485,-0.057450099254027,-0.0681967533916235,0.0097855720669031,-0.0967234596610069,-0.0042555429972708,standing
1783090423256265000,3.940264892578125,0.0115036830499768,-0.0314225085500627,-0.0249006325006484,0.0202560555189847,-0.0885334387421608,-0.0047711306251585,standing
1783090423266310000,3.950309814453125,0.035406098293513,-0.0417648927357047,0.0434767381548881,0.0173986963927745,-0.0702772438526153,-0.0052886418998241,standing
1783090423276354000,3.96035400390625,0.0421180170223116,-0.0549401622597128,0.138105571398139,0.0063372566364705,-0.0502332262694835,-0.0048641343601047,standing
1783090423286398000,3.97039794921875,0.0480741489477455,-0.0856804606992751,0.1755459519982337,-0.0075901458039879,-0.0197818018496036,-0.012647021561861,standing
1783090423296443000,3.98044287109375,0.0808474145196378,-0.0873634453501552,0.1761269667565822,-0.0153356837108731,0.0104978065937757,-0.0205108039081096,standing
1783090423310880000,3.9948798828125,0.0288663212612271,-0.0354183001879602,0.1531283684849739,-0.0124890310689806,0.0466342382133007,-0.0356942825019359,standing
1783090423320925000,4.004925048828125,-0.0052075055152177,-0.0408093455765396,0.1110690959125757,-0.0064089857041835,0.0569671504199504,-0.0452516376972198,standing
1783090423330969000,4.014968994140625,-0.0218535198897123,-0.1071639051675796,0.0338660292446613,-0.0074716354720294,0.0459029339253902,-0.0476153902709484,standing
1783090423341014000,4.025013916015625,0.0328013226225972,-0.1169400337725877,0.0047439796566963,-0.0041227103210985,0.024116413667798,-0.0392725057899951,standing
1783090423351058000,4.035057861328125,0.0647251317583024,-0.1223547522976994,-0.0117167412787675,0.0022046463564038,-0.0028625861741602,-0.0254213381558656,standing
1783090423361103000,4.04510302734375,0.0763962803296744,-0.1373484694205224,-0.0305453603893518,0.0116130616515874,-0.0192543417215347,-0.0198276340961456,standing
1783090423371147000,4.05514697265625,0.0738099170982837,-0.164627302294597,-0.049070028117299,0.0196933671832084,-0.03139478713274,-0.0152552593499422,standing
1783090423381191000,4.06519091796875,0.0696039898410439,-0.1790340863749384,0.0049210897892713,0.0280216038227081,-0.0337335765361785,-0.0128469625487923,standing
1783090423391236000,4.075236083984375,0.0355884691230952,-0.1818877222403883,0.0288303731650114,0.0352842174470424,-0.0239895582199096,-0.0145041095092892,standing
1783090423401280000,4.085280029296875,0.048790334393084,-0.2002119720254093,0.0606581745803356,0.0255053527653217,-0.0164970196783542,-0.0275456085801124,standing
1783090423411325000,4.095324951171875,0.0895690656356513,-0.1766395924538374,0.078014967572689,0.0132407937198877,-0.003361287061125,-0.0359056740999221,standing
1783090423421369000,4.105369140625,0.0813410432554781,-0.0982049381643533,0.0623503654509782,0.0023711030371487,0.000442505814135,-0.0393036007881164,standing
1783090423431414000,4.1154140625,0.087227178684622,-0.0681701576456427,0.0950520270913839,-0.0089121777564287,-0.0089326202869415,-0.0403542183339595,standing
1783090423441458000,4.1254580078125,0.0919439780734479,-0.1149009291604161,0.0909632964730262,-0.0180124659091234,-0.0213978122919797,-0.035993292927742,standing
1783090423451503000,4.135503173828125,0.08044687089473,-0.1532080095924436,0.0330699104309082,-0.0219968296587467,-0.0337856151163578,-0.0343123003840446,standing
1783090423461547300,4.14554736328125,0.066389557839185,-0.1546494405724108,0.0120873281568288,-0.0146443750709295,-0.0466404259204864,-0.0370143428444862,standing
1783090423471591000,4.1555908203125,0.0705095603786408,-0.1339808926835656,-0.0232066880643367,0.0050152256153523,-0.038569651544094,-0.0365948379039764,standing
1783090423481636000,4.165635986328125,-0.019888357296586,-0.0994227895215153,-0.0508662638843059,0.0285546388477087,-0.0164153445512056,-0.0403996966779232,standing
1783090423491680300,4.17568017578125,-0.0970671663060784,-0.0436263026934117,0.0432189640015363,0.0393674820661544,0.0082611162215471,-0.0444480404257774,standing
1783090423501725000,4.185724853515625,-0.0957300724834203,-0.0364474971052259,0.1294102237671613,0.0312898494303226,0.0259303897619247,-0.0484694130718708,standing
1783090423511769000,4.19576904296875,-0.0605637742951512,-0.0444710829544812,0.1780219867229461,0.014624779112637,0.040596704930067,-0.0544953979551792,standing
1783090423521814000,4.20581396484375,0.0051692193314433,-0.042251214947924,0.1647445719987154,-0.0080688148736953,0.0543367490172386,-0.0609785988926887,standing
1783090423531858000,4.21585791015625,0.0600368278115987,-0.0797830732237547,0.104289226514101,-0.0252210665494203,0.059232510626316,-0.0596008151769638,standing
1783090423541902000,4.225902099609375,0.1122892853572964,-0.0721151689443737,0.0705856943547725,-0.0279633216559886,0.0586585998535156,-0.051533568650484,standing
1783090423551947000,4.235947021484375,0.1634003177829086,-0.0673254504498094,0.0515092379629611,-0.0179328937083482,0.050708919763565,-0.0385679602622985,standing
1783090423561991000,4.245990966796875,0.1421969323650002,-0.0688954762455076,0.0229015676379203,-0.004661563783884,0.0347094424068927,-0.0289736595004796,standing
1783090423572036000,4.2560361328125,0.1395513862922787,-0.0876166163936257,-0.0245820680707693,0.0010004127398133,0.0188899599015712,-0.013652098365128,standing
1783090423582080000,4.266080078125,0.1497705824896693,-0.0808109549667686,-0.0056850598990917,0.0051168603822588,0.0041581518016755,5.78549224883e-05,standing
1783090423592125000,4.276125,0.1300219259247183,-0.0896175809524953,0.0359551104784011,0.0061520710587501,-0.0053717014379799,0.0098606217652559,standing
1783090423602169000,4.286169189453125,0.1040440195813775,-0.0981544500861316,0.0453261654138565,0.0015109803061932,-0.0079656206071376,0.010770889930427,standing
1783090423612214000,4.296214111328125,0.0712687081828713,-0.1114031501725315,0.0324526553153991,-0.0129173155874013,-0.0071955486200749,0.0123332319781184,standing
1783090423622258000,4.3062578125,0.0173415954232215,-0.0908654621217399,0.0625029256641864,-0.0267473775893449,-0.0136265493929386,0.0183873958885669,standing
1783090423632301600,4.316301513671875,0.0407575423240661,-0.0865193226762116,0.1088496662974357,-0.0337653756141662,-0.0180418882519006,0.0275166388601064,standing
1783090423642346500,4.326346435546875,0.0464483013115823,-0.0779709823004901,0.1144663371354341,-0.0347065329551696,-0.0128063801676034,0.0303403884172439,standing
1783090423652390400,4.336390380859375,0.0531869619168341,-0.1074788894008845,0.0881131677389144,-0.0386856161057949,-0.0105022452771663,0.0331310555338859,standing
1783090423662435600,4.346435546875,0.1141562482729554,-0.108467169785872,0.1141004264324903,-0.042843610048294,-0.0109400674700737,0.03522190451622,standing
1783090423672479700,4.356479736328125,0.1238984746083617,-0.0984584745340049,0.0534574494212865,-0.0403028614819049,-0.0073389052413403,0.0393607206642627,standing
1783090423683152400,4.36715234375,0.0855091227203607,-0.0896036985576152,-0.0021013561934232,-0.0175378955900669,-0.0023377551697194,0.0411021597683429,standing
1783090423693196500,4.377196533203125,0.0622349223777651,-0.0760302965614944,-0.0030219781696796,0.0098792612552642,0.0019926959648728,0.0431113801896572,standing
1783090423703241500,4.387241455078125,-0.0077931380942463,-0.0511384318891912,0.0184580322325229,0.0274348184466362,0.0068332576192915,0.0453564263880252,standing
1783090423713285400,4.397285400390625,-0.0445122186824679,-0.0594498947691172,0.0559095187485218,0.0177941713482141,0.0132132042199373,0.0435269698500633,standing
1783090423723330600,4.40733056640625,-0.0727960638806223,-0.0616171558056026,0.1017284361153841,-0.0052301879040896,0.0219715423882007,0.0351433381438255,standing
1783090423733374700,4.417374755859375,-0.0895963920339942,-0.0460445428162813,0.1440653565853834,-0.0220778826624155,0.0308809597045183,0.0299138240516185,standing
1783090423743418400,4.42741845703125,-0.0659556964665651,-0.0172245449148118,0.1408247672289609,-0.0235692523419857,0.0393503420054912,0.0228543169796466,standing
1783090423753463600,4.437463623046875,-0.0388550697036087,0.0217665722586214,0.1342863053709268,-0.0150856561958789,0.0442806147038936,0.0192836821079254,standing
1783090423763507700,4.4475078125,-0.0081359601825475,0.0162526311427354,0.088695936062932,-0.0045022540725767,0.0481784157454967,0.0180754028260707,standing
1783090423773552400,4.457552490234375,-0.0191157654888927,-0.0274742093157023,0.0853688374668359,0.0022684358991682,0.0444882996380329,0.0178602859377861,standing
1783090423783596500,4.467596435546875,-0.0260541864499449,-0.0493236375521868,0.0720849930018186,-0.0009675710462033,0.0353251621127128,0.0121299624443054,standing
1783090423793641500,4.477641357421875,0.0088050916157662,-0.1060021679118275,0.0338864875108003,-0.0119781047105789,0.022635469213128,0.0064698830246925,standing
1783090423803685400,4.487685302734375,0.0756932466268539,-0.0799406749382615,0.0060819502621889,-0.0237452834844589,0.0033834772184491,0.0068432576954364,standing
1783090423813730600,4.49773046875,0.0641515696540474,0.0010039894107729,-0.0109860889166593,-0.0230018589645624,-0.0142426937818527,0.0120077254250645,standing
1783090423823774500,4.5077744140625,0.0082873513519763,-0.0210271520681679,-0.0010603227078914,-0.0128264529630541,-0.0358324088156223,0.0227349363267421,standing
1783090423833818400,4.517818359375,0.0202785256579518,-0.0528502773083746,0.0043909284353256,0.001727184979245,-0.0448918715119361,0.0320883616805076,standing
1783090423843863600,4.527863525390625,0.0547464663185179,-0.0476238478969782,0.0248421803116798,0.0082684410735964,-0.0462591387331485,0.0316579937934875,standing
1783090423853907700,4.53790771484375,0.0902538330294191,-0.0215171275421977,0.0505611434578895,-0.0007754310499876,-0.0373127050697803,0.02286097407341,standing
1783090423863952600,4.54795263671875,0.1212704641923308,-0.0125047498513013,0.0850736539125442,-0.0178548153489828,-0.0187941472977399,0.0113318832591176,standing
1783090423873996500,4.55799658203125,0.1035917457692325,0.0175038733128458,0.0773737470597028,-0.0360790491104126,0.0017960057593882,0.0063454480841755,standing
1783090423884041500,4.56804150390625,0.0280655262723565,0.0387792279884219,0.0914566329479217,-0.036714743822813,0.0229849144816398,0.0075132441706955,standing
1783090423894085400,4.57808544921875,-0.0530310407027602,0.0368093892201781,0.1002203696399927,-0.0189891718327999,0.0392600856721401,0.005542891100049,standing
1783090423904129500,4.588129638671875,-0.1029569549970328,-0.0095155049074441,0.1125040971517562,0.0004950475413352,0.0490522608160972,0.0061498251743614,standing
1783090423914174500,4.598174560546875,-0.1265497197695076,-0.0262599381551146,0.1251771162420511,0.0111454585567116,0.0529872104525566,0.0070851380005478,standing
1783090423924218400,4.60821826171875,-0.0743384710170328,-0.035913463293761,0.1353799458265304,0.0060257976874709,0.0555105544626712,0.0096835847944021,standing
1783090423934263600,4.618263671875,-0.037645986174792,-0.0556927341926842,0.1032318264156579,-0.0129101034253835,0.050062358379364,0.0050992723554372,standing
1783090423944307500,4.628307373046875,0.0057020110338926,-0.0263191209964454,0.0615635989874601,-0.0300826989114284,0.0441115237772464,0.0021378370001912,standing
1783090423954352600,4.6383525390625,-0.0038929157853126,-0.0079166183434426,0.0237327577650547,-0.0357899591326713,0.0370551533997058,0.0022855240385979,standing
1783090423964396500,4.648396484375,-0.0138648592233657,0.0069609250538051,0.031745968350768,-0.0256763417273759,0.0289101414382457,-0.0040964749641716,standing
1783090423974441500,4.65844140625,-0.0315815715692937,-0.0266346166864037,0.0576338583230972,-0.0134638911113142,0.0153425559401512,-0.0114265559241175,standing
1783090423984485600,4.668485595703125,-0.0420846992745995,-0.0539146186042577,0.0621323387861251,-0.010189002379775,0.0021974586416035,-0.0157467350363731,standing
1783090423994529500,4.678529541015625,-0.0512644694216549,-0.0987909944240003,0.0886012435168027,-0.0134729808196425,-0.0091602019965648,-0.0143425213173031,standing
1783090424004574500,4.688574462890625,-0.0422242538757622,-0.1347768653668463,0.0910977365076541,-0.0153526403009891,-0.0190652981400489,-0.0202954858541488,standing
1783090424014618600,4.69861865234375,0.0018643325671553,-0.1584775474932044,0.0382440981984138,-0.0185545161366462,-0.0235908832401037,-0.0251056216657161,standing
1783090424024663600,4.70866357421875,0.0243067582607269,-0.138552657578513,0.0077834934830665,-0.0202429592609405,-0.0246201939880847,-0.0336929820477962,standing
1783090424034707500,4.71870751953125,0.0638362200945615,-0.0876477421842515,0.0170417356938123,-0.0229379851371049,-0.0130324773490428,-0.0416619591414928,standing
1783090424044752600,4.728752685546875,0.0383782459720969,-0.0502734856229275,0.0089051909893751,-0.0278443284332752,-0.0047998470254242,-0.0446620136499404,standing
1783090424054796500,4.738796630859375,0.046002164979279,-0.0622412790533155,0.0673953738808631,-0.033706746995449,-0.0022095791064202,-0.0410029590129852,standing
1783090424064841500,4.748841552734375,0.0571655101589858,-0.1031428329579532,0.0820715494871139,-0.0338718630373477,-0.0141607802361249,-0.0343993864953517,standing
1783090424074885600,4.7588857421875,0.0500083318807184,-0.1151935554314404,0.0633814620643854,-0.0226988866925239,-0.0280444864183664,-0.0279115904122591,standing
1783090424084929500,4.768929443359375,0.0330555896446108,-0.1101662287887185,0.0249736977368593,-0.0125144263729453,-0.0418830662965774,-0.0188648328185081,standing
1783090424094974500,4.778974365234375,-0.0217890763513743,-0.0892661371663212,0.0164519531071186,-0.0064765037968754,-0.0445060916244983,-0.013289107941091,standing
1783090424105018600,4.7890185546875,-0.0305371770828962,-0.0985899188939481,0.0588420650690793,-0.0098997307941317,-0.0398551486432552,-0.0186953246593475,standing
1783090424115063600,4.7990634765625,0.0202237267307937,-0.0902484262019395,0.1029307976424694,-0.022301360964775,-0.0288524143397808,-0.022314429283142,standing
1783090424125107500,4.809107421875,0.088257544645667,-0.0897146115861833,0.1158452242732048,-0.0303944405168294,-0.01347132679075,-0.0251722671091556,standing
1783090424135152600,4.819152587890625,0.1203410743877291,-0.0282246623568236,0.0811135181099176,-0.0331721119582653,0.0116105116903781,-0.0252818595618009,standing
1783090424145196500,4.829196533203125,0.0370727163314819,-0.0335753026697784,0.0512263293683528,-0.0302913710474967,0.0299120210111141,-0.0260768122971057,standing
1783090424155240400,4.839240478515625,-0.0498861668057739,-0.0761088416904211,0.0609779080539941,-0.0172529406845569,0.0390403904020786,-0.0308978613466024,standing
1783090424165285600,4.84928564453125,-0.0507617805965244,-0.1034434233397245,0.0812403593599796,-0.0059624696150422,0.038454495370388,-0.0335700772702693,standing
1783090424175329500,4.85932958984375,-0.0167640877962112,-0.1089723428290337,0.1078290910780429,-0.0040958509780466,0.037934485822916,-0.0332273319363594,standing
1783090424185374500,4.86937451171875,-0.0084551091343164,-0.0945773222517222,0.1071159743726253,-0.0063853706233203,0.0343815647065639,-0.0359102003276348,standing
1783090424195418600,4.879418701171875,0.0078783321596682,-0.1024093310516327,0.0850929431349039,-0.0109430216252803,0.0326570942997932,-0.0389198362827301,standing
1783090424205463300,4.88946337890625,0.0290359787397086,-0.1174094048500061,0.068311319682002,-0.0103581920266151,0.0338949337601661,-0.0412311926484108,standing
1783090424215507500,4.899507568359375,0.04662979535833,-0.1282305855285376,0.0269599031180143,-0.0121691459789872,0.0277191400527954,-0.0417732782661914,standing
1783090424225552600,4.909552734375,0.0585641249105334,-0.1271603259485214,0.0027986908078193,-0.0126770110800862,0.0187645275145769,-0.0394531302154064,standing
1783090424235596500,4.919596435546875,0.0722980512306094,-0.1125846881072968,-0.0130815998911857,-0.0082777785137295,0.0136947426944971,-0.0335705429315567,standing
1783090424245640400,4.929640380859375,0.0324076471298933,-0.1205921265393495,-0.0282218858778476,-0.0055373860523104,0.0113836517557501,-0.032323382794857,standing
1783090424255685600,4.939685546875,-0.0398329748250544,-0.1733381397556513,0.0046755905956029,-0.0082516390830278,0.0124606359750032,-0.0341493114829063,standing
1783090424265729500,4.9497294921875,-4.80769254267e-05,-0.2064116303831338,0.0181119952738285,-0.0041956454515457,0.0117538329213857,-0.0293399076908826,standing
1783090424275774500,4.9597744140625,0.0190244339436292,-0.1750971853174269,0.00432663102746,0.0174768101423978,0.021202802658081,-0.0220660213381052,standing
1783090424285818600,4.969818603515625,-0.0315614055640995,-0.1252680093958973,0.0185755211323499,0.0418314188718795,0.0451126620173454,-0.0214633475989103,standing
1783090424295863600,4.979863525390625,-0.0362181453287601,-0.1117347932796925,0.0755430245012044,0.0486309044063091,0.0473713278770446,-0.0257905796170234,standing
1783090424305907500,4.989907470703125,0.038561639714986,-0.0903082666303962,0.1257066930741071,0.0336998924612998,0.0452471897006034,-0.027604192495346,standing
1783090424315951600,4.99995166015625,0.0682926149815321,-0.0880187674537301,0.1143190376192331,0.0078194364905357,0.0471301190555095,-0.0257700122892856,standing
1783090424325996500,5.00999658203125,0.0143640409171581,-0.0873795927673578,0.0973316624611616,-0.0100431833416223,0.0432216636836528,-0.0185033120214939,standing
1783090424336040400,5.02004052734375,0.0203491066761314,-0.0746702602546662,0.0910609116286039,-0.0115792658179998,0.0317561849951744,-0.0035157673992216,standing
1783090424346085600,5.030085693359375,0.0742557611696422,-0.121405707944557,0.0721744248509407,-0.001579096307978,0.00997871812433,0.0091986954212188,standing
1783090424356129300,5.04012939453125,0.1018821653723716,-0.1339371266070753,0.0289016848355531,0.0113775469362735,-0.0214642696082592,0.0189029853790998,standing
1783090424366174500,5.050174560546875,0.14817936777547,-0.1259597910523414,-0.0092962361335754,0.0183406472206115,-0.0411381088197231,0.0270037893205881,standing
1783090424376218600,5.060218505859375,0.1269514324381947,-0.106170437150821,-0.0361322206109762,0.0197962429374456,-0.047380406409502,0.0273613184690475,standing
1783090424386263600,5.070263671875,0.059005877328664,-0.1207872837852686,0.0228436999708414,0.0159517042338848,-0.0525786280632019,0.0221630930900573,standing
1783090424396307500,5.080307373046875,0.0472642938695848,-0.127603101279959,0.0947913303285837,0.0079397121444344,-0.0470085144042968,0.0152685055509209,standing
1783090424406351600,5.0903515625,-0.0122248369313776,-0.1394339704576879,0.0903536401420831,0.0039745313115417,-0.0336684733629226,0.0028701587580144,standing
1783090424416396500,5.100396484375,-0.0316908771626651,-0.1369856274574995,0.077673606789112,-0.0033415260259062,-0.0238851979374885,-0.0063972431235015,standing
1783090424426440400,5.1104404296875,0.0291460149854421,-0.0966190572123974,0.1101636715054512,-0.0115025164559483,-0.0283768847584724,-0.0083101913332939,standing
1783090424436485600,5.120485595703125,0.1184941313467919,-0.0655048108939081,0.1102934353649616,-0.0204207170754671,-0.0364082604646682,-0.0016371172387152,standing
1783090424446529500,5.130529541015625,0.1001448201857507,-0.0680517919629812,0.0354798941820859,-0.0244729835540056,-0.038377933204174,0.0017850445583462,standing
1783090424456574500,5.140574462890625,0.0867890795283019,-0.1289323040571063,-0.003289689195156,-0.0274287555366754,-0.0510445721447467,0.0030286177061498,standing
1783090424466618600,5.15061865234375,0.1143688681103289,-0.1372735775534063,-0.0063011459708213,-0.0252412352710962,-0.0569602511823177,0.0030483249574899,standing
1783090424476662500,5.16066259765625,0.1182708439849317,-0.1420926682729274,-0.0042336920469999,-0.0181922856718301,-0.0594487451016902,0.005240237340331,standing
1783090424486707500,5.17070751953125,0.0800998110227286,-0.1044130720894783,0.05102642288208,-0.0103966807946562,-0.0548172406852245,0.0033230278640985,standing
1783090424496751600,5.180751708984375,0.0236564776584506,-0.1084599363274872,0.0954056628346443,-0.0036944202147424,-0.0428143851459026,-0.0037690477911382,standing
1783090424506796500,5.190796630859375,-0.0178001528456807,-0.1178578792698681,0.1305740068495273,-0.00498578697443,-0.0328040979802608,-0.0113444095477461,standing
1783090424516840400,5.20084033203125,-0.0345050578005611,-0.1308694095995277,0.1324497375935316,-0.0130317471921443,-0.0267554745078086,-0.0189855396747589,standing
1783090424526885600,5.2108857421875,0.032242227435112,-0.1003654041338712,0.0965004723340272,-0.0156895816326141,-0.018285559490323,-0.0199024658650159,standing
1783090424536929500,5.220929443359375,0.0903422419652342,-0.0616218319807201,0.0573491961628198,-0.0117060262709856,-0.0178735684603452,-0.0131694618612527,standing
1783090424546974500,5.230974365234375,0.1189078267142176,-0.0508239591125398,0.0539922869503498,-0.0040523670613765,-0.0209055766463279,-0.0024044318124651,standing
1783090424557018600,5.2410185546875,0.1558747445836663,-0.0716946054447442,0.0202946000099182,0.0039474149234592,-0.0246077515184879,0.010133596137166,standing
1783090424567062500,5.2510625,0.1557549175962805,-0.0799342451974749,-0.0238864870220422,0.0055237393826246,-0.0273444149643182,0.0201721154153347,standing
1783090424577107500,5.261107421875,0.0864155700407922,-0.0702440413102507,-0.0059708911031484,0.0044217715039849,-0.0229812450706958,0.0298651531338691,standing
1783090424587151600,5.271151611328125,0.0697327307872474,-0.0607156038559973,0.0364186363369226,0.0027479745913296,-0.0154460985213518,0.0314167141914367,standing
1783090424597196500,5.281196533203125,0.0361886269733309,-0.0627355653762817,0.0718798258185386,0.0002864513080567,-0.0058890022337436,0.0339609012007713,standing
1783090424607240400,5.291240478515625,-0.0030778000101447,-0.0636347061730921,0.0606429770112037,-0.0032073496840894,0.00773786008358,0.0349436067044734,standing
1783090424617285400,5.301285400390625,0.0132413204975426,-0.0685753774456679,0.0741372493565082,-0.0062213838100433,0.018022758886218,0.0324116721749305,standing
1783090424627329300,5.311329345703125,0.0254947990015149,-0.0647610798545181,0.0729933400183916,-0.0129123106598854,0.0196765810251235,0.0288233291357755,standing
1783090424637373400,5.32137353515625,0.0384710388220846,-0.0483049620289355,0.0638069940000772,-0.0148458015173673,0.027622316032648,0.0236058607697486,standing
1783090424647418600,5.331418701171875,0.042367315608263,-0.0177367322206497,0.0766764124453067,-0.0126281874254345,0.0254457145929336,0.0199144538491964,standing
1783090424657462300,5.341462158203125,0.0100366792373359,-0.0441066335562616,0.0621364304393529,-0.0094746109098196,0.0226649548858404,0.0197012033313512,standing
1783090424667507500,5.351507568359375,-0.004625029452145,-0.0825933814041316,0.0475666378170251,-0.0050111524760723,0.0152648286893963,0.0165195260196924,standing
1783090424677551600,5.361551513671875,-0.0021149463273584,-0.1193905687298625,0.0756453158318996,0.0008585017640143,-0.001363833900541,0.0116200409829616,standing
1783090424687596500,5.371596435546875,0.0100017540544271,-0.1315176443751901,0.0463853190779686,0.0054718954488635,-0.0117927715182304,0.006919561419636,standing
1783090424697640400,5.381640380859375,0.0009488251574337,-0.1442074684698134,0.0203705878555774,0.0110883275046944,-0.0129333660006523,-0.0025463795755058,standing
1783090424707685400,5.391685302734375,0.0325407719902694,-0.1232371611554175,0.0181751236379146,0.0106643522158265,-0.0124974064528942,-0.0168036129325628,standing
1783090424717729300,5.401729248046875,0.0570705253519117,-0.0938031960740685,0.0263514158308506,0.0058204596862196,-0.0045939064584672,-0.024724718183279,standing
1783090424727773400,5.4117734375,0.0499218226410448,-0.0460122479818761,0.0683855539619922,-0.0029224317986518,-0.0025632460601627,-0.0309269558638334,standing
1783090424737818400,5.421818359375,0.0333330914117395,-0.0281131648063659,0.0887187324166297,-0.0127009265124797,-0.0120197180658578,-0.0360069386661052,standing
1783090424747862300,5.4318623046875,0.0328682503789663,-0.0768407361615449,0.062305941787362,-0.0133832283318042,-0.0206177327781915,-0.0421955920755863,standing
1783090424757907500,5.441907470703125,0.0140533675327897,-0.1325431880306452,0.0127688806802034,-0.0075856307521462,-0.0268048606812953,-0.0510949380695819,standing
1783090424767951600,5.45195166015625,-0.000125818336755,-0.148740801050514,0.0314034385234117,-0.0014070966280996,-0.0335634313523769,-0.0488062165677547,standing
1783090424777996500,5.46199658203125,0.0229144271194934,-0.127047878549993,0.049312604701519,-0.0033497253898531,-0.0280783865600824,-0.0504441335797309,standing
1783090424788040400,5.47204052734375,0.075829147966206,-0.146265277782455,0.0745510908544063,-0.0047766473144292,-0.0152054652571678,-0.0536242164671421,standing
1783090424798084600,5.482084716796875,0.1265574646845459,-0.137993635456264,0.0851256763607263,-0.0131099093705415,-0.0027327365241944,-0.0579666942358017,standing
1783090424808129500,5.492129638671875,0.1054097549766302,-0.1002279684245586,0.0775461810171604,-0.0247378051280975,0.0075651747174561,-0.0568782575428485,standing
1783090424818173400,5.50217333984375,0.0299814428962767,-0.1042025711439549,0.0682382544457912,-0.0322217755019664,0.0035628997720777,-0.0545023865997791,standing
1783090424828218400,5.51221826171875,-0.0099587916955351,-0.0863699773333966,0.0706032300114631,-0.0339094176888465,-0.0062894648872315,-0.0544035844504833,standing
1783090424838262500,5.522262451171875,-0.028410540317744,-0.0759499978668987,0.0405558822721242,-0.0293928701430559,-0.0120709612965583,-0.0521786510944366,standing
1783090424848307500,5.532307373046875,-0.031976416105777,-0.0701757253143936,0.0422281993985176,-0.0221818294376134,-0.0118981227278709,-0.0478241145610809,standing
1783090424858351400,5.542351318359375,-0.0114297410309314,-0.0693803371530026,0.0772439832001924,-0.0167624745517969,-0.004698684439063,-0.0404587425291538,standing
1783090424868396500,5.552396484375,0.037404432503879,-0.0924426483105868,0.1027870052576065,-0.0153448730707168,-0.0003601284697651,-0.0346344113349914,standing
1783090424878440400,5.5624404296875,0.0733313398011028,-0.1296753044441342,0.0802536864101886,-0.0124968532472848,0.008711208589375,-0.0283527411520481,standing
1783090424888484400,5.572484375,0.0893773424558341,-0.1154323326233774,0.0336754751086235,-0.0074967686086893,0.0165398363023996,-0.0215257294476032,standing
1783090424898529500,5.582529541015625,0.0629008389405906,-0.1092623387515544,0.0225368259787559,-0.0103522893041372,0.0217284709215164,-0.0158970095217227,standing
1783090424908573400,5.592573486328125,0.0056784840278327,-0.0877761908695101,0.0566734888583421,-0.0113581651821732,0.0318684577941894,-0.0080990074202418,standing
1783090424918618400,5.602618408203125,-0.018154811502248,-0.0752088241107761,0.0731587597131729,-0.009517534635961,0.0421802178025245,0.0005251797847449,standing
1783090424928662500,5.61266259765625,-0.0060139995925128,-0.0518451188538223,0.1143441720604896,-0.0073987236246466,0.0506828911602497,0.0107764862477779,standing
1783090424938707500,5.62270751953125,0.0571418370224535,-0.0160052322529256,0.1137654953896999,-0.0093772141262888,0.0569301694631576,0.0222546346485614,standing
1783090424948751400,5.63275146484375,0.066292527205497,-0.0366299410000443,0.0778267515242099,-0.0100310202687978,0.0646730437874794,0.0322265774011611,standing
1783090424958795500,5.64279541015625,0.0863660318106412,-0.0638044367168098,0.0533545735687017,-0.0058898571878671,0.066487155854702,0.0469149127602577,standing
1783090424968840400,5.65284033203125,0.0695772479645907,-0.077241060590744,0.0518447535276412,0.0054892972111701,0.0696749612689018,0.0584221668541431,standing
1783090424978884400,5.66288427734375,0.009338029448688,-0.1079466530431061,0.0531172576814889,0.0217282939702272,0.0777111127972602,0.0604920946061611,standing
1783090424988929500,5.672929443359375,0.005569762956351,-0.1281928108014166,0.0540419713109731,0.0245672240853309,0.0908372998237609,0.0527793131768703,standing
1783090424998973400,5.682973388671875,0.0078444298900663,-0.1022930111955851,0.0465022234559059,0.0166739933192729,0.1141887828707695,0.0428174398839473,standing
1783090425009018400,5.693018310546875,0.0105376144967973,-0.0730668436460196,0.0875496886372566,0.0047648698091506,0.1354946047067642,0.0298606306314468,standing
1783090425019062500,5.7030625,0.0152079443953931,-0.0526162493567913,0.1221305881530046,-0.0116695845499634,0.1513930261135101,0.0158022008836269,standing
1783090425029106400,5.7131064453125,0.0031217852823436,-0.01650996690467,0.0890881502509117,-0.0237369015812873,0.1583915501832962,0.0063551701605319,standing
1783090425039151400,5.7231513671875,0.0025020459488034,-0.0232599526215344,0.0480494528979063,-0.0331326276063919,0.1601023972034454,0.0002441494725644,standing
1783090425049195500,5.733195556640625,0.0081231007009744,-0.0357679904084652,0.0352151057660579,-0.0355976484715938,0.14113749563694,-0.0010709194466471,standing
1783090425059240400,5.743240478515625,-0.0253982067592442,-0.0438817387592047,0.0317079744279384,-0.0322562679648399,0.1051655411720275,0.002567091723904,standing
1783090425069284400,5.753284423828125,-0.0543435846060514,-0.090566040783748,0.0192827926188707,-0.0273456647992134,0.0607397481799125,0.0095142135396599,standing
1783090425079329500,5.76332958984375,-0.0257568109385669,-0.1065059527155011,-0.004384498694539,-0.020268389955163,0.0107177831232547,0.0162235088646411,standing
1783090425089373400,5.77337353515625,0.0244338917717337,-0.1171788840297609,-0.0325192908108234,-0.0132722668349742,-0.0282703600823879,0.0230952650308609,standing
1783090425099418400,5.78341845703125,0.064457420732826,-0.1191901507869362,-0.0490764578580856,-0.0074124261736869,-0.0533833242952823,0.0252277888357639,standing
1783090425109462500,5.793462646484375,0.0686073800191283,-0.1015966994944959,-0.0209083479940891,-0.0016682536806911,-0.0576281361281871,0.0235135145485401,standing
1783090425119506400,5.80350634765625,0.0636569180049002,-0.098925361393392,0.0382078578412532,0.0045472430065274,-0.043974868953228,0.0190360136330127,standing
1783090425129551400,5.81355126953125,0.0183219847626984,-0.0881180631097406,0.0975502736479043,0.0054479232057929,-0.0136710256338119,0.0116934115067124,standing
1783090425139595500,5.823595458984375,-0.039183717136085,-0.0806439278367906,0.1407037711977958,0.0029981662519276,0.0130164325237274,0.0039337598718702,standing
1783090425149640400,5.833640380859375,-0.0468431458480656,-0.0902303060233593,0.1662882943093776,-0.0081833815202116,0.0298231095075607,-0.0074677658267319,standing
1783090425159684400,5.843684326171875,-0.0331499899297952,-0.057399172784388,0.1636900945097208,-0.0147529011592268,0.0398811884224414,-0.0128403631970286,standing
1783090425169729500,5.8537294921875,0.0183111711077392,-0.084846932484582,0.1427905143439769,-0.0224574245512485,0.0340139791369438,-0.0146545087918639,standing
1783090425179773400,5.8637734375,0.0669420771554112,-0.0929546894859522,0.0668786565303802,-0.0196521040052175,0.0316943228244781,-0.0214541554450988,standing
1783090425189817300,5.8738173828125,0.0779969935245811,-0.1123463493067771,-0.0124631757318973,-0.014071449637413,0.0265075527131557,-0.0242163855582475,standing
1783090425199862500,5.883862548828125,0.0958498994708061,-0.1280906656011939,-0.0168131876349449,-0.0121261766180396,0.0111412648111581,-0.0234741680324077,standing
1783090425209906400,5.893906494140625,0.1064464045479893,-0.1399975956898182,-0.0200140295028686,-0.0116073926910758,-0.0046350341290235,-0.0226384662091732,standing
1783090425219951400,5.903951416015625,0.0620068127103149,-0.151209090860188,-0.021980945661664,-0.0087350979447364,-0.0269937925040721,-0.0199145823717117,standing
1783090425229995500,5.91399560546875,0.0403144747316837,-0.1371392836492508,0.0094289226025342,-0.0055283857509493,-0.0477579273283481,-0.0164636578410863,standing
1783090425240040400,5.92404052734375,-0.0481739560604095,-0.1154180849023163,0.0270639480143785,-0.0021937391720712,-0.0542240068316459,-0.0189368091523647,standing
1783090425250084400,5.93408447265625,-0.0875347833290696,-0.1175238250099122,0.0506949989706277,-6.50745350867e-05,-0.0495496280491352,-0.024433571845293,standing
1783090425260128500,5.94412841796875,-0.068398997965455,-0.0919780995387583,0.0986573581069707,-0.0073626330122351,-0.0398343354463577,-0.029763551428914,standing
1783090425270173400,5.95417333984375,-0.0148811966590583,-0.0738156892519444,0.0996516298413276,-0.0196975972503423,-0.033397477120161,-0.0287704598158597,standing
1783090425280217300,5.96421728515625,0.0350824192970991,-0.0439523197773844,0.1333797119200229,-0.0289878062903881,-0.0288051217794418,-0.0227431282401084,standing
1783090425290262500,5.974262451171875,0.0756774645358324,-0.0599110825400799,0.1038408982247114,-0.0272026900202035,-0.0256301015615463,-0.0141989076510071,standing
1783090425300306400,5.984306396484375,0.0681374244198203,-0.0845773948282003,0.0885059664487838,-0.017057865858078,-0.0172462798655033,-0.0074868761003017,standing
1783090425310351400,5.994351318359375,0.0551632304258644,-0.0939624052237719,0.0904635302573442,-0.008666512556374,-0.0072892541065812,-0.0068959211930632,standing
1783090425320395500,6.0043955078125,0.0062973465785384,-0.0878417303863912,0.0604413169592618,-0.0068185990676283,0.0046643801033496,-0.0095704644918441,standing
1783090425330439400,6.014439453125,-0.0204329855673015,-0.0810159760195761,0.0751490567475557,-0.0150544242933392,0.0132948867976665,-0.0115164369344711,standing
1783090425340484400,6.024484375,-0.0367836702570319,-0.0887447436407208,0.0933662659615278,-0.027402875944972,0.0089589580893516,-0.0169174596667289,standing
1783090425350528500,6.034528564453125,-0.0328600670725107,-0.1219541356075555,0.0895095905333757,-0.0397929698228836,0.0003055492416024,-0.0203625261783599,standing
1783090425360573400,6.044573486328125,0.0143067577719688,-0.1216262188274413,0.0834913531571626,-0.0385587736964225,-0.011959183961153,-0.021121259778738,standing
1783090425370617300,6.054617431640625,0.0923687793567776,-0.1069844569474458,0.0590074847638606,-0.034341923892498,-0.011307243257761,-0.0260467771440744,standing
1783090425380662500,6.06466259765625,0.0280623114019632,-0.0962317383952438,-0.0032201310902833,-0.0273692365735769,-0.0068067675456404,-0.028267852962017,standing
1783090425390706400,6.07470654296875,-0.0294341842770576,-0.0883057677015662,-0.0189186354815959,-0.0237800944596529,0.001748105045408,-0.0327353030443191,standing
1783090425400750300,6.084750244140625,-0.0192130883835256,-0.1025699284408241,-0.0030903672307729,-0.0227591190487146,0.0038618582766503,-0.0330568850040435,standing
1783090425410795500,6.09479541015625,-0.0343269247546792,-0.0849088918048888,0.0172615159243345,-0.0227692387998104,0.003979836590588,-0.0331740640103817,standing
1783090425420839400,6.10483935546875,-0.013214432490617,-0.0557286092236638,0.0544756865531206,-0.0219682082533836,-0.0011740266345441,-0.0291281212121248,standing
1783090425430884400,6.11488427734375,0.0427425786614418,-0.015351736780256,0.067030047699809,-0.0195793528109788,-0.0127619728446006,-0.0244630612432956,standing
1783090425440928500,6.124928466796875,0.073664809539169,0.0139647394012659,0.0875327375024557,-0.0155775472521781,-0.025870431214571,-0.0173301212489604,standing
1783090425450973400,6.134973388671875,0.0790245830066502,0.0131443629290908,0.0534685553371906,-0.0105324536561965,-0.0336881428956985,-0.0112266885116696,standing
1783090425461017300,6.145017333984375,0.1270331193722784,-0.0199365072872489,0.0174503164947032,-0.0054033482447266,-0.0318269357085228,-0.0076932683587074,standing
1783090425471062500,6.1550625,0.1334839029468595,-0.0251011965740472,0.0525216298758983,0.000997558934614,-0.0185191202908754,-0.0068554384633898,standing
1783090425481106400,6.1651064453125,0.1296587917007506,-0.0467144779670983,0.0901256766051054,8.49007628858e-05,0.0011356561444699,-0.0139498366042971,standing
1783090425491150300,6.175150390625,0.1023221642248332,-0.0447268843464553,0.1319979021728038,-0.014953170903027,0.0230984799563884,-0.0211699306964874,standing
1783090425501195500,6.185195556640625,0.0416239498950541,-0.0284949306655675,0.1491302387595176,-0.0326966159045696,0.0404317043721675,-0.0275211036205291,standing
1783090425511239400,6.195239501953125,-0.0022165070056915,-0.0314531228840351,0.1473515386492014,-0.0359147787094116,0.0501596964895725,-0.030376011505723,standing
1783090425521284400,6.205284423828125,0.0099053079426288,-0.0654790919307619,0.1488689574748277,-0.0326482914388179,0.0408071987330913,-0.0332162082195282,standing
1783090425531328500,6.21532861328125,0.0421348220266401,-0.0807227652266621,0.0924994199991226,-0.0286080092191696,0.0290642585605382,-0.0359057337045669,standing
1783090425541373400,6.22537353515625,0.0418469449959695,-0.0813570445422083,0.0049660979747772,-0.0170671008527278,0.0246424283832311,-0.040165327489376,standing
1783090425551417300,6.235417236328125,0.1005669911205768,-0.0715533703431487,-0.0241162041246891,-0.0062988749705255,0.0240842290222644,-0.0388782210648059,standing
1783090425561461500,6.24546142578125,0.0872498289078474,-0.0575891423985362,-0.0420779772728681,-0.0048956624232232,0.0228484068065881,-0.0351676344871521,standing
1783090425571506400,6.25550634765625,0.0354094592943787,-0.0755032770127058,-0.0096574706614017,-0.0100251771509647,0.0228249710053205,-0.0298303980380296,standing
1783090425581550300,6.26555029296875,0.0492032991081476,-0.1347047499787062,0.0090542440712451,-0.0182989090681076,0.0185976959764957,-0.0250966250896453,standing
1783090425591595500,6.275595458984375,0.0373949340231716,-0.1410241622585803,0.0427028311729431,-0.0241919532418251,0.0098289716988801,-0.0198041275143623,standing
1783090425601639400,6.285639404296875,0.0728476479373872,-0.0700310561466962,0.0710141488999128,-0.0236416980624198,0.0093664973974227,-0.0069477837532758,standing
1783090425611684600,6.2956845703125,0.0781543760433793,-0.0434847753308713,0.0732785867005586,-0.0106199048459529,0.0179362837225198,0.0069027850404381,standing
1783090425621728500,6.305728515625,0.0556157964989542,-0.0285557209420949,0.0750900200366973,0.0016911407001316,0.0311024580150842,0.0176646821200847,standing
1783090425631774200,6.315774169921875,0.0670740329720079,-0.0218803348314017,0.0740951637804508,0.0091285509988665,0.0496194176375865,0.0218706130981445,standing
1783090425641819100,6.325819091796875,0.0260924726337194,-0.0213731890268623,0.0951870516479015,0.0039654802531003,0.0623647756874561,0.0243558753281831,standing
1783090425651863000,6.335863037109375,0.0131670862175524,-0.0548698004372417,0.1448603063553571,-0.0139184454455971,0.0651123598217964,0.02378542535007,standing
1783090425661908200,6.345908203125,-0.0172943952806293,-0.0910142960079014,0.1462093828767538,-0.033712662756443,0.0569331385195255,0.0208500921726226,standing
1783090425671952100,6.3559521484375,-0.0856415169283747,-0.1024810080483555,0.0983078140169382,-0.042117066681385,0.0377003252506256,0.0176130197942256,standing
1783090425681997300,6.365997314453125,-0.1239633565381169,-0.1313376846984028,0.0421679936438798,-0.032390046864748,0.0130799710750579,0.0152630470693111,standing
1783090425692041200,6.376041259765625,-0.0253220727831125,-0.1244135114584118,0.0169037885278463,-0.0137053085491061,-0.0188808906823396,0.0162926241755485,standing
1783090425702085400,6.38608544921875,0.0594018909089267,-0.0952436772059649,-0.0601309358358383,0.0082954596728086,-0.0349167361855506,0.0185696929693222,standing
1783090425712130300,6.39613037109375,0.0731993839845061,-0.0533113189488649,-0.0857347481697797,0.0269343927502632,-0.0369617789983749,0.0211116801947355,standing
1783090425722174200,6.40617431640625,0.0763240918762981,-0.0330569048188626,-0.025582185024023,0.0304341409355402,-0.0302800629287958,0.0233174450695514,standing
1783090425732219100,6.41621923828125,0.0809631498537957,-0.0440632328059524,0.0313473244220018,0.0242076702415943,-0.0237569157034158,0.0209174044430255,standing
1783090425742263000,6.426262939453125,0.0392307711482048,-0.0685178020395338,0.0968441712051629,0.0083463368937373,-0.0049095288850367,0.0073874779045581,standing
1783090425752308200,6.43630810546875,0.0244001356326043,-0.0877692496720701,0.1032920321702957,-0.0099000446498394,0.0099447844550013,-0.0024696805048733,standing
1783090425762352000,6.44635205078125,-0.0286456642478704,-0.0770739603955298,0.1496270823657512,-0.0199399553239345,0.0274192932993173,-0.0105381924659013,standing
1783090425772397300,6.456397216796875,-0.0512425498507916,-0.0752398768361657,0.1513847396880388,-0.0169747918844223,0.0348369963467121,-0.011729690246284,standing
1783090425782441200,6.466441162109375,-0.0570062279440462,-0.0597368219517171,0.1162842002123594,-0.0078998832032084,0.0328329056501388,-0.0108953211456537,standing
1783090425792485000,6.476485107421875,0.0213151752293109,-0.0522770074650645,0.0908861395835876,-0.0010582224931567,0.0168755091726779,-0.0089104659855365,standing
1783090425802530300,6.4865302734375,0.0498753531508147,-0.0696928371682763,0.0297515796631574,-0.0057360576465725,-0.0030216528102755,-0.0035013239830732,standing
1783090425812574200,6.49657421875,0.0460895510017871,-0.0973231138285249,-0.0153863697022199,-0.0060564358718693,-0.024222545325756,0.0014526883605867,standing
1783090425822619100,6.506619140625,0.073652680709958,-0.1446237211205065,-0.0272515795409679,0.0001752695534378,-0.0418553687632083,0.0061758058145642,standing
1783090425832663300,6.516663330078125,0.0831089297108352,-0.1349238726221024,0.0073258128434419,0.0106228506192564,-0.049226202070713,0.0129977595061063,standing
1783090425842708200,6.526708251953125,0.0610012889295816,-0.1093962673295289,0.0127262105822563,0.0182412676513195,-0.0555625110864639,0.0162797048687934,standing
1783090425852752100,6.536752197265625,0.034414895299077,-0.0979117273714393,0.0602566080421209,0.0121130682528018,-0.0585127621889114,0.0201293043792247,standing
1783090425862796300,6.54679638671875,-0.0053628422074019,-0.0886973973676562,0.0710047965496778,-0.0006095708813518,-0.0613591484725475,0.0187581777572631,standing
1783090425872841200,6.55684130859375,0.0090454762428998,-0.0972068670377135,0.0682996292442083,-0.0154383182525634,-0.0518740341067314,0.0109505895525217,standing
1783090425882885000,6.566885009765625,0.0004835457332432,-0.0797969556186348,0.0659568655103445,-0.0177606754004955,-0.038892988115549,0.004171909764409,standing
1783090425892930300,6.576930419921875,0.0084871117077767,-0.0610150251939892,0.0558335309028625,-0.00666408194229,-0.0211832299828529,0.0044270409271121,standing
1783090425902974200,6.58697412109375,0.0187757198795676,-0.0325835882186889,0.0442342785239219,0.0008742618374526,-0.0086730327457189,0.0096351187676191,standing
1783090425913019100,6.59701904296875,0.0149327807158231,-0.0430650886140763,0.0681184274584054,0.0033328919671475,-0.0053443470969796,0.0170632079243659,standing
1783090425923063300,6.607063232421875,-0.0133918348841369,-0.0807264184884727,0.0619277561247348,0.0005313865840435,-0.0059402124024927,0.017956094816327,standing
1783090425933107200,6.617107177734375,-0.0148180682949721,-0.1046381130170077,0.0596095423102378,0.00260492390953,-0.01087611541152,0.0180101562291383,standing
1783090425943152000,6.627152099609375,0.0162504391856491,-0.1229589287359267,0.074130235093832,0.0075448527932167,-0.0185679700225591,0.0252813249826431,standing
1783090425953196300,6.6371962890625,0.0888385594040155,-0.0946453459866344,0.0746446143567562,0.0056601334363222,-0.0255313366651535,0.0307040531188249,standing
1783090425963241200,6.6472412109375,0.1116283372305333,-0.1181338466670364,0.0674994187772274,-0.0080919004976749,-0.0316349603235721,0.0319896936416626,standing
1783090425973285000,6.65728515625,0.1103457500740885,-0.1281667995773255,0.0413338809072971,-0.0217073112726211,-0.0288226641714572,0.0368126779794693,standing
1783090425983330300,6.667330322265625,0.0575872427023947,-0.1098885808911174,0.0246656547009944,-0.0191771294921636,-0.0314678288996219,0.0432544685900211,standing
1783090425993374200,6.677374267578125,0.0435427891284227,-0.0824978851404041,0.0259878432154655,-0.004865035880357,-0.0385632887482643,0.0457695573568344,standing
1783090426003418000,6.687418212890625,0.0464284275673329,-0.0644108781773597,0.0305728329181671,0.0164875257760286,-0.040175337344408,0.050963319838047,standing
1783090426013463300,6.69746337890625,0.0311975406877696,-0.0461873853530734,0.0156289462864398,0.0287987869232893,-0.0319155417382717,0.0504301562905311,standing
1783090426023507200,6.707507080078125,0.0173144151553511,-0.0449661729950457,0.0346194779604673,0.0326597020030021,-0.0188023671507835,0.0469749048352241,standing
1783090426033552100,6.71755224609375,0.0196526488445699,-0.0643519875969737,0.0953682534337043,0.0234763249754905,-0.0056777764111757,0.0351701751351356,standing
1783090426043596300,6.72759619140625,0.0201588448010385,-0.081968308308348,0.1006546694040298,0.0046130735427141,0.0070787663571536,0.021729864180088,standing
1783090426053641000,6.737640869140625,-0.017407938657701,-0.0907760302726179,0.1296767657488584,-0.0120532549917697,0.0149574624374508,0.0109025165438652,standing
1783090426063685000,6.74768505859375,0.014757716409862,-0.1130968023478984,0.1248264031082391,-0.0095193553715944,0.0085942167788743,0.0043066688813269,standing
1783090426073729300,6.757729248046875,0.0542393935792148,-0.143164827549085,0.0640232670992612,0.0044435984455049,-0.0134458374232053,-0.0026143542490899,standing
1783090426083774200,6.767774169921875,0.1295975630328059,-0.1349340286899358,-0.0551513938575983,0.0236993599683046,-0.0391275063157081,-0.0012442243751138,standing
1783090426093818000,6.777818115234375,0.1683462497524917,-0.1152628212753683,-0.1362888773649931,0.0382980108261108,-0.0687937885522842,0.0096931112930178,standing
1783090426103863300,6.78786328125,0.0844585907541215,-0.0717422439787536,-0.1567857219487428,0.0422421619296073,-0.0905986428260803,0.0136198084801435,standing
1783090426113907200,6.7979072265625,0.0284809752054512,-0.0738417004760354,-0.0134966104328632,0.032239593565464,-0.0934263840317726,0.0104567715898156,standing
1783090426123952000,6.8079521484375,-0.0190524909943342,-0.0679302114099264,0.0645212797492742,0.0101478649303317,-0.0873498916625976,0.0102758109569549,standing
1783090426133996300,6.817996337890625,-0.0421907899975776,-0.0885845846429467,0.1496978095144033,-0.0090503310784697,-0.0701943412423133,0.0032884757965803,standing
1783090426144040200,6.828040283203125,-0.0260481951005756,-0.1066561017759144,0.2085018806606531,-0.0232630334794521,-0.0463916510343551,-0.0024084947071969,standing
1783090426154085000,6.838085205078125,-0.0578437016814947,-0.1221367256328463,0.2323492047160863,-0.0371375679969787,-0.0248567946255207,-0.0078101847320795,standing
1783090426164129300,6.84812939453125,-0.0226376560047268,-0.1626362746078521,0.2025958714872598,-0.0545742698013782,-0.0091052651405334,-0.0091048767790198,standing
1783090426174174200,6.85817431640625,0.0345823608204722,-0.1486440626777708,0.1387315943419933,-0.0677931383252143,-0.0024428348988294,-0.0046123908832669,standing
1783090426184218000,6.868218017578125,0.0877028333723545,-0.1220233283862471,0.0808393773436546,-0.0590066574513912,-0.0029872977174818,-0.0014380363281816,standing
1783090426194263300,6.87826318359375,0.1162637419462204,-0.1139990118846297,-0.0019546411991119,-0.0328935608267784,0.0033829831518232,0.005601231008768,standing
1783090426204307200,6.88830712890625,0.1396342422701418,-0.0867152105744928,-0.0329541750967502,-0.0105895036831498,0.0041677365079522,0.0130791217088699,standing
1783090426214351000,6.89835107421875,0.0808189190775156,-0.0456534976720809,0.0101601594865322,0.0007094896864145,0.006944082211703,0.0222150962799787,standing
1783090426224396300,6.908396240234375,-0.0022531857542693,-0.047677477780357,0.0386234529048204,0.0019330836366862,0.0118575040251016,0.0268369447439908,standing
1783090426234440200,6.918440185546875,-0.0015988134987652,-0.0731247843783348,0.0687017803043127,-0.0029231903608888,0.0107466988265514,0.0314106568694114,standing
1783090426244485000,6.928485107421875,-0.0380703490667045,-0.121268126104772,0.0661310530334711,-0.0095553984865546,0.0143319573253393,0.0339708216488361,standing
1783090426254529300,6.938529296875,-0.0363610609307885,-0.1278125793121755,0.0718938543438911,-0.0174926836043596,0.0152025446295738,0.027737159281969,standing
1783090426264574200,6.94857421875,-0.0126030225940048,-0.1185761105418205,0.0596621492803096,-0.0258461236953735,0.0212275702506303,0.0180576331913471,standing
1783090426274618000,6.9586181640625,0.0114750414773821,-0.1159605212159454,0.0604442395687103,-0.0307346209883689,0.0251634567975997,0.0163329690694808,standing
1783090426284662300,6.968662353515625,0.0180523740410804,-0.1410672707479447,0.0769616591274738,-0.0274138487875461,0.0257163979113101,0.024085434153676,standing
1783090426294707200,6.978707275390625,-0.0059020636506378,-0.1464308436077088,0.0826654237270355,-0.0185556411743164,0.030816351994872,0.0317444168031215,standing
1783090426304751000,6.988751220703125,-0.0529316719815134,-0.123679205834493,0.0508773698002099,-0.0082294074818491,0.0392383001744747,0.0337853319942951,standing
1783090426314796300,6.99879638671875,-0.0550713143587112,-0.1236197307322174,0.0611047493040561,-0.0063883643597364,0.0380862168967723,0.0312832929193973,standing
1783090426324840200,7.008840087890625,0.0146652158208191,-0.1311865127246826,0.0610854600816965,-0.0137294586747884,0.0344416387379169,0.0229760929942131,standing
1783090426334885000,7.018885009765625,0.0553327417738735,-0.1016355702001601,0.0315273571640253,-0.0274247638881206,0.0220070742070674,0.013567678630352,standing
1783090426344929300,7.02892919921875,0.0547876751117408,-0.0422994380038231,0.0182429281771183,-0.0366289988160133,0.0085464725270867,0.0076956739649176,standing
1783090426354973200,7.03897314453125,0.0236912567108869,-0.027784298178181,0.018489596414566,-0.0281867776066064,-0.0064665656536817,0.0044269100762903,standing
1783090426365018000,7.04901806640625,-0.0405276790909469,-0.0205389301598072,0.0201356100559234,-0.003166337031871,-0.0315490923821926,0.0059705451130867,standing
1783090426375062300,7.059062255859375,-0.0216987677194178,-0.0526984477475285,0.0262082079678773,0.0215568523854017,-0.0513550192117691,0.004835239611566,standing
1783090426385107200,7.069107177734375,0.0383591028802096,-0.0680401015251874,0.0159516023695468,0.0353400334715843,-0.0609709471464157,0.0006576708983629,standing
1783090426395151000,7.079151123046875,0.0303245572455227,-0.0562959607828408,-0.0021989713490009,0.021252179518342,-0.0481656678020954,-0.0054146023467183,standing
1783090426405196300,7.0891962890625,0.0060195525504648,-0.0932161899663507,0.050026890450716,-0.0048341900110244,-0.025519773364067,-0.0136122107505798,standing
1783090426415240200,7.099240234375,0.0574671234540641,-0.0958258610080927,0.1240513270825147,-0.0255898013710975,0.0027432886417955,-0.0217460375279188,standing
1783090426425284000,7.1092841796875,0.0022737901508808,-0.0719792676050215,0.1493055953264236,-0.0290574971586465,0.0309329666197299,-0.0339441150426864,standing
1783090426435329300,7.119329345703125,-0.0022479250572621,-0.0775355134926736,0.1414256557315588,-0.017397379502654,0.0458844862878322,-0.0416414514183998,standing
1783090426445373200,7.129373291015625,0.0144822604693472,-0.0330992826558649,0.1457253987520933,-0.0092492662370204,0.0438733026385307,-0.0425081737339496,standing
1783090426455418000,7.139418212890625,0.0315144976824522,-0.0443643346443772,0.1071586444705724,-0.009794682264328,0.0331551432609558,-0.0419350638985633,standing
1783090426465462300,7.149462158203125,0.0428860787853598,-0.0621540391612797,0.0171714995533227,-0.0100227361544966,0.0123211210593581,-0.0388896018266677,standing
1783090426475507200,7.159507080078125,0.0493308710105717,-0.073525474133715,-0.0002156885772943,-0.010203830897808,-0.0013978867791593,-0.0282825008034706,standing
1783090426485551000,7.169551025390625,0.0577272356949746,-0.0949452057160437,-0.0100029230982065,-0.0132314497604966,-0.0106261633336544,-0.0203632581979036,standing
1783090426495595300,7.17959521484375,0.0887926744356751,-0.1225212679710239,-0.0069914663225412,-0.0120905516669154,-0.0088178776204586,-0.0114728268235921,standing
1783090426505640200,7.18964013671875,0.0885021670565009,-0.0930519393153488,0.0511544331759214,-0.012575508095324,-0.0024690474383533,-0.0055179987102746,standing
1783090426515684000,7.19968408203125,0.07746288664788,-0.0716951169013977,0.0941740752130746,-0.0145952496677637,0.0107713909819722,-0.0012497508432716,standing
1783090426525729300,7.209729248046875,0.0629769729167222,-0.0497013117581605,0.0725894353926181,-0.008739803917706,0.022731265053153,0.0018313273321837,standing
1783090426535773200,7.219773193359375,0.0454701039291918,-0.0515265544239431,0.0918020853847265,-0.0012656422331929,0.0323122516274452,-0.0011261131148785,standing
1783090426545818000,7.229818115234375,0.0444752476729452,-0.0659124418467283,0.0854459943562746,0.0056287562474608,0.0370205715298652,-0.0051778480410575,standing
1783090426555862300,7.2398623046875,0.006092033264786,-0.0647764966193586,0.0475169534564018,0.008941994048655,0.0419519506394863,-0.0064753396436572,standing
1783090426565906200,7.24990625,0.0176893859475851,-0.064572863806039,0.0806768802583217,0.0079989163205027,0.0390027984976768,-0.0020182053558528,standing
1783090426575951000,7.259951171875,0.0055970893546938,-0.0673704586353153,0.0881570068806409,0.0009993298444896,0.0334495715796947,-0.0008546703029423,standing
1783090426585995300,7.269995361328125,0.0120106096588075,-0.0800181971538811,0.0538660302221775,-0.0020222833845764,0.0269501712173223,0.0015132772969081,standing
1783090426596040200,7.280040283203125,-0.0002525134563446,-0.0888969385277479,0.0205021052807569,-0.0086058843880891,0.0208097212016582,0.0025777427945286,standing
1783090426606084000,7.290083984375,-0.0114054833725094,-0.1064063647985458,0.0314630597561597,-0.0153333973139524,0.0202552359551191,-0.0007048693951219,standing
1783090426616129300,7.30012939453125,0.010732990938425,-0.0986488094743341,0.0451151530116796,-0.0173017382621765,0.0259983427822589,-0.0031272806227207,standing
1783090426626172200,7.310172119140625,-0.0098893797211349,-0.07141798046045,0.0875274768054485,-0.0176161658018827,0.0271176397800445,-0.0047191833145916,standing
1783090426636216000,7.320216064453125,-0.0066465984076261,-0.1010937184084206,0.1242927346229553,-0.0135607039555907,0.0303704254329204,-0.0082585243508219,standing
1783090426646261200,7.33026123046875,0.0511183389492332,-0.1293727413009852,0.1113379759818315,-0.0074701434932649,0.0354359112679958,-0.0105569660663604,standing
1783090426656305200,7.34030517578125,0.0737454735599458,-0.1455802911929786,0.0558668486505746,-0.00616439525038,0.0419633202254772,-0.0155285540968179,standing
1783090426666350000,7.35035009765625,0.0570686256557703,-0.1030043743353337,0.0514379262924194,-0.0136053580790758,0.0400703027844429,-0.0160787645727396,standing
1783090426676394200,7.360394287109375,0.1000293771125376,-0.0955829921629279,0.062539166021347,-0.0220766067504882,0.0314706899225711,-0.0127423554658889,standing
1783090426686439000,7.37043896484375,0.0691166447155177,-0.1165248040352016,0.0131178402483463,-0.0274700820446014,0.0213261805474758,-0.0177333187311887,standing
1783090426696483000,7.380483154296875,-0.0152209500074386,-0.0973321008525788,-0.0242243406742811,-0.0255744438618421,0.0060449629090726,-0.019357580691576,standing
1783090426706527200,7.39052734375,-0.0452991312764585,-0.1137048512436449,-0.0099544077813625,-0.0136100146919488,-0.0101844538003206,-0.0234645754098892,standing
1783090426716572200,7.400572265625,-0.0613173691414296,-0.0991491602119058,0.0128881231456995,-0.0081537291407585,-0.0219218041747808,-0.031508918851614,standing
1783090426726616000,7.410615966796875,-0.0042218554787337,-0.0712671007476747,0.0177285489141941,-0.0096217924728989,-0.0226154029369354,-0.0374062918126583,standing
1783090426736661200,7.4206611328125,0.0500321511477231,-0.0254880769997835,0.0457376688241958,-0.014192309230566,-0.0216734427958726,-0.0402960889041423,standing
1783090426746705200,7.430705078125,0.0741788965411484,-0.001251826692,0.0743704735904932,-0.0205964632332324,-0.0074668508023023,-0.0429444015026092,standing
1783090426756750000,7.44075,0.044028088427335,-0.0227484959680587,0.0883691883265972,-0.0270034968852996,0.0109622236341238,-0.0429068505764007,standing
1783090426766794200,7.450794189453125,0.0477406792096793,-0.0411857776734977,0.1307049397528171,-0.0334104411303997,0.0301458854228258,-0.0371159389615058,standing
1783090426776838100,7.460838134765625,0.0764132314644753,-0.0426547542475163,0.1693137796103954,-0.0360091514885425,0.0437863282859325,-0.0304769463837146,standing
1783090426786883000,7.470883056640625,0.0397853362910449,-0.086668156562373,0.1586819109588861,-0.0342956744134426,0.0517435148358345,-0.0280682481825351,standing
