time,seconds_elapsed,accel_x,accel_y,accel_z,gyro_x,gyro_y,gyro_z,label
1783088879947177200,0.04517724609375,0.154069010335952,0.0553936781808733,-0.0171253223240375,0.0409503579139709,0.0320684537291526,-0.0436246171593666,standing
1783088879957221400,0.055221435546875,0.1378736623384058,0.0225384334139525,0.0150105221271514,0.0313010886311531,0.0179312545806169,-0.0240043494850397,standing
1783088879967266000,0.06526611328125,0.078876187511906,-0.0005851064115762,0.0290460617423057,0.0244120247662067,-0.0036017340607941,-0.0098110325634479,standing
1783088879977310200,0.075310302734375,0.0431828697748482,-0.0381176953397691,0.0231043967336416,0.0340803079307079,-0.0060774688608944,-0.0019586982671171,standing
1783088879987354000,0.08535400390625,-0.0334761531442403,-0.0400524627946317,0.0405360085278749,0.0456714481115341,0.0025615589693188,-0.0025999874342232,standing
1783088879997398000,0.09539794921875,-0.0912087226014584,-0.0398982951462268,0.1214665712863206,0.047848530113697,0.0149542484432458,-0.0013887498062103,standing
1783088880007442200,0.105442138671875,-0.0679256813652813,-0.0257088801436126,0.1519002879947424,0.0468932576477527,0.0237594582140445,0.0030169177334755,standing
1783088880017486000,0.115486083984375,-0.0532617807187139,-0.0041107963196933,0.1803133125305175,0.0467127449810504,0.0330192781984806,0.0079209292307496,standing
1783088880027530200,0.1255302734375,-0.0682582012552767,0.0069949734538793,0.1043091002583503,0.0436940491199493,0.0351956151425838,0.0066279647871851,standing
1783088880037575200,0.1355751953125,-0.0040373657573014,0.0036998774312436,0.0436573554188013,0.045076236128807,0.0301203206181526,-0.0071832230314612,standing
1783088880047619000,0.145619140625,0.070486398698762,0.0488410416670143,0.0539823500782251,0.0506643466651439,0.0327531248331069,-0.0199826415628194,standing
1783088880057663200,0.155663330078125,0.078195877097547,0.0806891552180051,0.0917921485126018,0.0536742471158504,0.0349566750228405,-0.0252880584448575,standing
1783088880067707100,0.16570703125,0.0368529361009597,0.0556691341213881,0.0979068320006132,0.0351218692958354,0.0280082188546657,-0.0278638675808906,standing
1783088880077751000,0.1757509765625,-0.0207597333036363,0.0210329972870647,0.1245177755504846,0.0052824271842837,0.009555272758007,-0.0294439550489187,standing
1783088880087795200,0.185795166015625,-0.059981809688732,0.0144476275473833,0.1170873332887887,-0.0177419316023588,-0.0093015059828758,-0.0340560153126716,standing
1783088880097839000,0.195839111328125,-0.0825655435491353,0.0267721254609525,0.0697983433693647,-0.0229731798171997,-0.0265679992735385,-0.0325262248516082,standing
1783088880107883300,0.20588330078125,-0.1024247478164732,0.014863076480478,-0.0076683426707983,0.0023207266349345,-0.0309449061751365,-0.0310356561094522,standing
1783088880117928200,0.21592822265625,-0.0760372377589344,0.0526774049594998,-0.0372638549894094,0.0391021817922592,-0.0231587309390306,-0.024096293374896,standing
1783088880127972000,0.22597216796875,-0.0114803752396255,0.0614076777733862,0.0163508308202028,0.0595981329679489,-0.0197261814028024,-0.0176085662096738,standing
1783088880138016300,0.236016357421875,0.0796506059505045,0.0618636048473417,0.1160837092041969,0.0488530211150646,-0.0313711278140544,-0.0090367477387189,standing
1783088880148060200,0.24606005859375,0.1442794377274811,0.0865543939895927,0.1287409462034702,0.0162354242056608,-0.0491993948817253,-0.0056574628688395,standing
1783088880158104000,0.25610400390625,0.1835902153093367,0.1187947217285633,0.1324795482099056,-0.0133120827376842,-0.0553359575569629,0.0011998430127277,standing
1783088880168148500,0.2661484375,0.1318273679114878,0.1529842838391661,0.1060486374020576,-0.0210448373109102,-0.0476466119289398,0.0085158124566078,standing
1783088880178192400,0.2761923828125,0.0443655767533928,0.138100749092549,0.089294486477971,-0.014610799960792,-0.0348034985363483,0.0110696833580732,standing
1783088880188236500,0.286236572265625,0.0105466015208512,0.0982974387533962,0.0858580822885036,-0.0076652765274047,-0.0331153199076652,0.0092001445591449,standing
1783088880198281500,0.296281494140625,0.0182624365951865,0.0764089936807751,0.0853507172882556,-0.0014870617305859,-0.0346523448824882,0.0035644972231239,standing
1783088880208325400,0.306325439453125,-0.0400116193275898,0.0506961680144071,0.1176759468317031,-0.0005861143581569,-0.0306115299463272,0.0031719473190605,standing
1783088880218369500,0.31636962890625,-0.1025190750364214,-0.0051356093227863,0.1061959369182586,-0.0037521868944168,-0.023732129484415,0.0002016564831137,standing
1783088880228413700,0.32641357421875,-0.1027632590558379,-0.0569504061035811,0.0981593454569578,-0.0089184530079364,-0.0134520623832941,-0.0043638003990054,standing
1783088880238457300,0.336457275390625,-0.0813918966598808,-0.0375019015289843,0.0938297918200492,-0.0196373034268617,-0.0097841266542673,-0.0112837618216872,standing
1783088880248501500,0.34650146484375,-0.0140291829396039,-0.0076312255308032,0.0479313794761896,-0.0294862054288387,-0.0105260834097862,-0.0160393696278333,standing
1783088880258545400,0.35654541015625,0.0593370089791715,0.0622901596963405,0.0282639714539051,-0.0314357429742813,-0.0086030317470431,-0.0168855860829353,standing
1783088880268590300,0.36659033203125,0.0689640845023095,0.1204728840738534,0.0684141955345869,-0.0170994140207767,-0.0029312977567315,-0.0123747223988175,standing
1783088880278634500,0.376634521484375,0.0085031860597431,0.1072429617531597,0.0423567942142486,0.0079224193468689,0.0122496485710144,-0.0004006831441074,standing
1783088880288678400,0.386678466796875,-0.0355717371840029,0.039111967074126,0.0394195717185735,0.0199396666139364,0.0193099547177553,0.0088431490585207,standing
1783088880298722600,0.39672265625,0.0017497662767767,0.0089538524366915,0.1079775596380233,0.0095837013795971,0.0056161405518651,0.0109339635819196,standing
1783088880308766700,0.4067666015625,0.0355407575238496,-0.0031811142541468,0.1300835929840803,-0.008413940668106,-0.0144419893622398,0.0145438779145479,standing
1783088880318810400,0.416810302734375,0.0137803227450698,-0.0136744512178003,0.1263116732299327,-0.0178726892918348,-0.0203520767390728,0.014301530085504,standing
1783088880328854500,0.4268544921875,-0.0266106512889266,-0.0313766966469585,0.1236310558438301,-0.0207457076758146,-0.0203219838440418,0.0146298976615071,standing
1783088880338899500,0.4368994140625,-0.0757544752947986,-0.0461788367204368,0.0883230110973119,-0.0186088923364877,-0.0178204979747533,0.0113284764811396,standing
1783088880348943400,0.446943359375,-0.1031377183914184,-0.0287505859270691,0.0656745414376258,-0.0102476328611373,-0.0188679192215204,0.0084895463660359,standing
1783088880358987500,0.456987548828125,-0.0659801733206957,0.0136878952212631,0.045724224820733,0.0090591618791222,-0.0195644535124301,0.0047724060714244,standing
1783088880369031400,0.467031494140625,-0.0214786952279508,0.0576814968571066,0.0140817168444395,0.0248533058911561,-0.0141204204410314,0.0035721196327358,standing
1783088880379075600,0.47707568359375,0.0380473335172981,0.0516715889178216,0.0552963552862405,0.0204147230833768,-0.0129543039947748,0.0032169888727366,standing
1783088880389119500,0.487119384765625,0.0258832868624478,0.0251040461182594,0.0946072059333324,-0.0052285883575677,-0.0163785964250564,0.0032193856313824,standing
1783088880399163400,0.497163330078125,-0.0137958856403827,-0.0135588620141148,0.1281663611859083,-0.0329044237732887,-0.0149391051381826,0.0071237450465559,standing
1783088880409207600,0.50720751953125,-0.0677365154687315,-0.0662006111383438,0.1375754100441932,-0.0422883369028568,-0.0065663936547935,0.007191389799118,standing
1783088880419252500,0.51725244140625,-0.0833966606110334,-0.0862456203013658,0.1136965218067169,-0.0339133888483047,0.0026941844262182,0.0088982107117772,standing
1783088880429296400,0.52729638671875,-0.0196186004444956,-0.0867138223350048,0.0665267743527889,-0.0221052002161741,0.0042590578086674,0.0072648935019969,standing
1783088880439340500,0.537340576171875,0.0869604905724525,-0.0474608393549919,0.0317453838288784,-0.011906306259334,-0.0013406542129814,0.0061235958710312,standing
1783088880449384400,0.547384521484375,0.1079983101651072,-0.0019153321020305,0.0414420174568891,-0.0088942712172865,-0.0080379713326692,0.014471273869276,standing
1783088880459428600,0.5574287109375,0.1031585419837385,0.0170855748355388,0.0751665924042463,-0.0125542534515261,-0.0166511666029691,0.0286177191883325,standing
1783088880469472500,0.567472412109375,0.0788745070114731,-0.0247841665141284,0.0883563288450241,-0.0217520128935575,-0.0288164857774972,0.0361659191548824,standing
1783088880479516400,0.577516357421875,0.0384256653103977,-0.0490679822906851,0.074365212893486,-0.0296241026371717,-0.042736679315567,0.0464490503072738,standing
1783088880489561600,0.5875615234375,0.0276456934250891,-0.070745268830657,0.034580899515748,-0.0369153060019016,-0.0506891459226608,0.0477380193769931,standing
1783088880499605500,0.59760546875,-0.012716419840604,-0.0829620685860514,0.0388379724383354,-0.0357272177934646,-0.0570814721286296,0.0504594668745994,standing
1783088880509649400,0.6076494140625,-0.0384654858641326,-0.0912669555947184,0.0238438169240951,-0.0212236419320106,-0.0586130507290363,0.0441592298448085,standing
1783088880519693300,0.617693359375,-0.014182766066119,-0.0906045461632311,-0.0248076935201883,0.0054536154493689,-0.050387218594551,0.0328958891332149,standing
1783088880529737500,0.627737548828125,-0.0129501555312424,-0.0360401584133505,0.0222030639797449,0.031308114528656,-0.0321293845772743,0.0247633922845125,standing
1783088880539781600,0.63778173828125,-0.0444390803810209,-0.015658464641869,0.0842576613545417,0.0309067256748676,-0.0111997164785861,0.0147519055753946,standing
1783088880549825500,0.647825439453125,-0.0008854045324027,-0.0503043922178447,0.1484825885057449,0.0032588522881269,-0.0048507419414818,0.0041946019046008,standing
1783088880559869400,0.657869384765625,0.0269345494810491,-0.0571675559855997,0.1901338647991418,-0.0328865833580493,-0.0065650679171085,0.0002386369742453,standing
1783088880569914600,0.66791455078125,0.0200849027819931,-0.0445537197366356,0.1559568699091672,-0.055247813463211,-0.0079853320494294,-0.0052221748046576,standing
1783088880579958500,0.67795849609375,-0.0077023180056363,-0.0416511301629245,0.0697001436918973,-0.0516543537378311,-0.0105181392282247,-0.0071051241829991,standing
1783088880590002400,0.68800244140625,-0.0359505073685199,-0.0362476636841893,-0.0168675481706857,-0.0298630408942699,-0.0140167344361543,-0.0089395092800259,standing
1783088880600046300,0.69804638671875,-0.0196703306317329,-0.0905363032326102,-0.0532633881539106,-0.0026064950507134,-0.0105996625497937,-0.0091373221948742,standing
1783088880610090500,0.708090576171875,0.0283985576190054,-0.1033849711507558,-0.0137912094652652,0.0115948114544153,-0.0147171756252646,-0.0102915363386273,standing
1783088880620134700,0.718134765625,0.054952729480341,-0.0798784233570098,0.0429109209656715,0.0107439355924725,-0.0203459747135639,-0.0092710750177502,standing
1783088880630178600,0.728178466796875,0.1149259174712002,-0.0678483783453702,0.0614993015795946,0.0036143874749541,-0.0232951585203409,-0.0081267142668366,standing
1783088880640223500,0.738223388671875,0.0898907718706876,-0.0429682041108608,0.1107072768628597,-0.0026366407983005,-0.015671070665121,-0.0073395818471908,standing
1783088880650267600,0.748267578125,0.0169580759983509,-0.0558748858265578,0.1031394719570875,-0.0138703864067792,-0.0094565842300653,-0.0069960337132215,standing
1783088880660311600,0.7583115234375,-0.0226625712502747,-0.0714217067874968,0.1092266829162836,-0.0272724777460098,-0.0030902973376214,-0.0046457946300506,standing
1783088880670355500,0.76835546875,-0.008515607149899,-0.0935660263173282,0.1080208142578601,-0.035495787858963,-0.0056498614139854,0.0015729529550299,standing
1783088880680399400,0.7783994140625,-0.0073206982769072,-0.102762601468712,0.0810807848840951,-0.0392432808876037,-0.0141807589679956,0.005846647080034,standing
1783088880690443500,0.788443603515625,0.0177935769744217,-0.0875919203437864,0.0189431854009628,-0.0299677569419145,-0.0202602241188287,0.008625122718513,standing
1783088880700487400,0.7984873046875,0.0772939598217606,-0.0326142756178975,-0.0293155263334512,-0.0149277672171592,-0.0285056643187999,0.0155360056087374,standing
1783088880710531600,0.808531494140625,0.0803295281253755,-0.0536779603041708,-0.0343669645041227,-0.0042106746695935,-0.0357302874326705,0.0244352258741855,standing
1783088880720576500,0.818576416015625,0.0463391418486833,-0.0824690243721008,-0.0096223993480205,-0.0015745708951726,-0.0415454916656017,0.0344104282557964,standing
1783088880730620400,0.828620361328125,0.0337535818461328,-0.0765913645103573,0.043171033206582,-0.0014230370288714,-0.0514628365635871,0.0450231246650218,standing
1783088880740664600,0.83866455078125,0.0438810081068426,-0.0651274289488792,0.0723427671551704,0.0071313558146357,-0.0508650541305542,0.0559426508843898,standing
1783088880750708500,0.84870849609375,0.0201592831924557,-0.0585104950271546,0.0856534996271133,0.0163368377834558,-0.0480852462351322,0.0643238872289657,standing
1783088880760752400,0.85875244140625,0.0341011531747877,-0.0412282285757362,0.088891750895977,0.0197341777384281,-0.0438138134777545,0.0642960891127586,standing
1783088880770796500,0.868796630859375,0.082708239955455,-0.0818123140290379,0.0700748222231864,0.0180931370705366,-0.0325430482625961,0.0623312108218669,standing
1783088880780840400,0.87884033203125,0.090081545202434,-0.1037358304150402,0.0576437951952219,0.0157016199082136,-0.0193576831370592,0.0596431791782379,standing
1783088880790885400,0.888885498046875,0.0798126646444201,-0.0824463741488754,0.0529307951986789,0.0107369553297758,-0.0053396034054458,0.0531250908970832,standing
1783088880800929500,0.898929443359375,0.0393829660352319,-0.0289329567566514,0.0972018986016511,0.0041755116544663,0.0096892639994621,0.0524754151701927,standing
1783088880810973400,0.908973388671875,-0.013646613362804,-0.0187726511396467,0.1329606097251176,-0.00749286217615,0.0220876112580299,0.0566230230033397,standing
1783088880821017600,0.919017578125,-0.0727156190555542,-0.0366647200524807,0.143361007708311,-0.0205328706651926,0.0302523076534271,0.0561408251523971,standing
1783088880831061500,0.9290615234375,-0.0863691005505621,-0.0734659259662032,0.112155722105503,-0.03085208684206,0.0279188472777605,0.0537003055214881,standing
1783088880841105400,0.93910546875,-0.0898951557848602,-0.114479488877952,0.0301490545481443,-0.0274828150868415,0.0276319347321987,0.0471511557698249,standing
1783088880851149600,0.949149658203125,-0.038464243755117,-0.084124682624638,0.001812602379918,-0.0194155685603618,0.0295145232230424,0.040039449930191,standing
1783088880861194500,0.959194580078125,0.0026733839277178,-0.0665406567476689,0.019293314012885,-0.0176763106137514,0.0180218573659658,0.0312510542571544,standing
1783088880871238400,0.96923828125,0.0769903007000684,-0.0548177779890596,0.0389426018565893,-0.0148115484043955,0.0104611441493034,0.025986248627305,standing
1783088880881282600,0.979282470703125,0.0970312182098627,-0.0393994057133793,0.0780535460174083,-0.0108437575399875,0.0053325779736042,0.033726330846548,standing
1783088880891326500,0.989326416015625,0.0526729479800909,-0.0476952326327562,0.0823135415494441,-0.0054031861945986,-2.0000152289e-06,0.0381980426609516,standing
1783088880901370600,0.99937060546875,0.0547505579717457,-0.0605348404616117,0.0516647207856178,-0.0045819748193025,-0.0116784926503896,0.0388862378895282,standing
1783088880911414300,1.009414306640625,0.1028695689745247,-0.050083735204488,0.0507154572367668,0.0004093218594789,-0.0221692156046628,0.0443345308303833,standing
1783088880921458400,1.01945849609375,0.1316993576176464,-0.033594226565957,0.0355903688192367,0.0116785950958728,-0.0280472170561552,0.0480570644140243,standing
1783088880931502600,1.029502685546875,0.1070990232378244,-0.0289120600990951,0.0243441676616668,0.020652649924159,-0.0261222850531339,0.0453502275049686,standing
1783088880941547500,1.039547607421875,0.1088208055291324,-0.0162305654413998,0.0412982250720262,0.0192618947476148,-0.0256966296583414,0.0417293161153793,standing
1783088880951591400,1.04959130859375,0.0541117486115545,-0.0435743533104658,0.0364595528692007,0.009116580709815,-0.0249248445034027,0.0409402213990688,standing
1783088880961635600,1.059635498046875,0.0068961161892861,-0.1122653199598193,0.0582481908291578,-0.0024117613211274,-0.0251259617507457,0.0426124967634677,standing
1783088880971679500,1.069679443359375,-0.0401197558771818,-0.1200767243631184,0.0691980393886566,-0.0056022284552454,-0.0183362327516078,0.0400888845324516,standing
1783088880981723600,1.0797236328125,-0.0442157199539244,-0.083980159587413,0.0785883835464715,-0.0026996491942554,-0.0100295674055814,0.0355529896914958,standing
1783088880991767300,1.089767333984375,-0.0463709982916712,-0.0722697019189596,0.103752050897479,-0.0058075580745935,-0.0071504241786897,0.0380680784583091,standing
1783088881001811500,1.0998115234375,-0.035243893469125,-0.0516432396061718,0.1331844816088676,-0.0127513259649276,-0.0094022545963525,0.0404774770140647,standing
1783088881011856600,1.109856689453125,-0.0038216771800071,-0.030766894185543,0.129078799855709,-0.0198875330388546,-0.0198775324970483,0.0462445467710495,standing
1783088881021900300,1.119900390625,0.0438831269986927,-0.0343428529761731,0.0543617047846317,-0.0137352058663964,-0.0317426323890686,0.0538975410163402,standing
1783088881031944400,1.1299443359375,0.0706336251497268,-0.0465684205599129,-0.0622971739590167,0.009884369559586,-0.0383318252861499,0.0639286041259765,standing
1783088881041988400,1.13998828125,0.0935466640297323,-0.0368327700957655,-0.0787333449751138,0.042846743017435,-0.0325766466557979,0.06923858076334,standing
1783088881052032500,1.150032470703125,0.1079999176003038,-0.0241743640527129,-0.0049801265001296,0.0607362575829029,-0.0279304925352334,0.0750485360622406,standing
1783088881062076700,1.16007666015625,0.0494585890434682,-0.0037646132305264,0.0931353798151016,0.0545387640595436,-0.0252845026552677,0.0723508447408676,standing
1783088881072120300,1.170120361328125,-0.0031189357381314,-0.0368247329197823,0.1621896268188953,0.0273489542305469,-0.0163011290132999,0.0684674233198165,standing
1783088881082164500,1.18016455078125,-0.0350577232472598,-0.0667765113301575,0.2037958949267864,-0.0061761429533362,-0.0118571892380714,0.0570279546082019,standing
1783088881092209700,1.190209716796875,-0.06110679513067,-0.0737434277333319,0.1935673463791608,-0.032803226262331,-0.0036677033640444,0.0521202832460403,standing
1783088881102253300,1.20025341796875,-0.0077011489618569,-0.0751654233604669,0.1234901860684156,-0.0383443012833595,0.0077963676303625,0.0496894009411335,standing
1783088881112297500,1.21029736328125,0.0262343653224408,-0.0496766157083213,0.0482078583300113,-0.0259033478796482,0.0196247976273298,0.0489738062024116,standing
1783088881122341400,1.22034130859375,0.0520586885392665,-0.0095231767572462,0.0187070385575294,-0.008793331682682,0.024473575875163,0.0452564805746078,standing
1783088881132385500,1.230385498046875,0.0777972331687808,0.0121434422582387,0.013560323318839,0.0034968904219567,0.0310883354395627,0.0391301475465297,standing
1783088881142429700,1.2404296875,0.0830889098361134,0.0127960609480738,0.0494166495978832,0.0042669111862778,0.0338962376117706,0.0335273258388042,standing
1783088881152473300,1.250473388671875,0.0264109639983624,0.0237869721703231,0.07577507969141,-0.0019989740103483,0.0298990979790687,0.0320798940956592,standing
1783088881162518000,1.26051806640625,-0.0231316500667482,0.0167906835421919,0.0681686963409185,-0.0104398634284734,0.0237846933305263,0.0304783694446086,standing
1783088881172562000,1.27056201171875,-0.06019530630894,-0.0021945874348282,0.05802022729218,-0.0108726266771554,0.0155818909406661,0.0307167209684848,standing
1783088881182606000,1.280606201171875,-0.1163772122580557,-0.0295012581638991,0.0573164629369974,-0.0027957907877862,0.0150392465293407,0.0297921411693096,standing
1783088881192650000,1.29064990234375,-0.1103497686620801,-0.0657214493192732,0.0825005885541439,0.0030575711280107,0.020762912929058,0.027792640030384,standing
1783088881202694000,1.30069384765625,-0.0418771209385246,-0.0638053865648806,0.1067167459219694,0.0033640486653894,0.0240251664072275,0.0229343678802251,standing
1783088881212738000,1.310738037109375,0.0062113487955182,-0.0498069640897214,0.1001531496226787,-0.0107688149437308,0.0202852897346019,0.0203745365142822,standing
1783088881222782000,1.320781982421875,0.0848198252819478,-0.0055460898198187,0.0753922178536653,-0.0183572247624397,0.0103687951341271,0.0218511596322059,standing
1783088881232826000,1.330826171875,0.1175316429901868,0.007820756753534,0.0045680385679006,-0.0130205154418945,-8.9970882982e-05,0.0283191762864589,standing
1783088881242871000,1.34087109375,0.1011608653604984,0.0276325416825711,-0.0403951387524604,0.0087237646803259,-0.0061452840454876,0.0341249704360961,standing
1783088881252915000,1.3509150390625,0.0656020607233047,0.0366071446463465,-0.0187725050091743,0.0356922671198844,-0.0111887771636247,0.035697303712368,standing
1783088881262959000,1.360958984375,0.0247583014205098,0.0326738968506455,0.0175081841617822,0.0533131770789623,-0.0108318943530321,0.0379329249262809,standing
1783088881273003000,1.3710029296875,-0.0033295828141272,0.016602175232768,0.0646282472550869,0.0617412813007831,-0.0066605848260223,0.0355539247393608,standing
1783088881283047000,1.381046875,-0.0241567553307861,0.0273230373419821,0.1201607493847608,0.0593003369867801,-0.0102872569113969,0.02784264087677,standing
1783088881293091000,1.391091064453125,-0.0172143888469785,0.0125046767860651,0.1166378359556198,0.0547418035566806,-0.0162551347166299,0.0201892480254173,standing
1783088881303135000,1.401135009765625,-0.0173285167459398,0.0137163906633853,0.0451227517962455,0.0586295910179615,-0.0160447247326374,0.0178010892122983,standing
1783088881313180000,1.411179931640625,-0.0757697459291666,-0.0086762045390903,0.0211269591808319,0.0675397291779518,-0.0214253738522529,0.0146471075713634,standing
1783088881323224000,1.42122412109375,-0.1179481148365885,-0.0213154674902558,0.0224766202241182,0.0732761248946189,-0.0254208780825138,0.0097485529258847,standing
1783088881333268000,1.43126806640625,-0.140368694024533,-0.0154920220337808,0.0374725293040275,0.0741134211421012,-0.0243353731930255,0.0006123122293502,standing
1783088881343312100,1.44131201171875,-0.0775914814636111,-0.0184270525723695,0.0802788208514451,0.0694580599665641,-0.023531287908554,-0.0055270050652325,standing
1783088881353355800,1.451355712890625,0.0071258332919329,-0.0322781755313277,0.0764507869958877,0.063142642378807,-0.0225696209818124,-0.0099079050123691,standing
1783088881363400000,1.46139990234375,0.0458346994578838,-0.0189580907091498,0.1145820724695921,0.054504569619894,-0.0217450149357318,-0.0145711973309516,standing
1783088881373444000,1.471444091796875,0.0709464174259454,-0.0145142630428075,0.1201625029504299,0.0486892908811569,-0.0183292459696531,-0.0190056264400482,standing
1783088881383488800,1.48148876953125,0.0692744656257331,-0.0102181732840836,0.0908668503612279,0.0431899204850196,-0.0065844296477735,-0.0151018649339675,standing
1783088881393533000,1.491532958984375,0.0441883204903453,-0.0352319107703864,0.1162491288989782,0.0384423024952411,0.0103663243353366,-0.0075488742440938,standing
1783088881403577000,1.5015771484375,0.0205301623314619,-0.0472325835570693,0.1062491284102201,0.0287879649549722,0.0264493413269519,-0.0014514052309095,standing
1783088881413621000,1.51162109375,-0.0092564886450767,-0.0546915212608873,0.1300251407951116,0.0224589630961418,0.0315253250300884,-0.0039566406048834,standing
1783088881423665200,1.5216650390625,0.0750718267928809,0.0076201196148991,0.1303109719991683,0.0243456531316041,0.0598359256982803,-0.0044403006322681,standing
1783088881433708800,1.531708740234375,0.0333778073363006,-0.0028420915581285,0.1497533390939235,0.0205149613320827,0.0908026248216629,0.0010657850652933,standing
1783088881443753000,1.5417529296875,-0.1043964862808585,-0.0446055960543453,0.1609995402514934,-0.0005837690550833,0.1049257293343544,-0.0035506361164152,standing
1783088881453797000,1.551797119140625,-0.138351655113697,-0.042791532369703,0.1516559578448534,-0.0287427026778459,0.1118701919913292,-0.0144195277243852,standing
1783088881463841800,1.561841796875,-0.105685576243326,-0.0284554023727774,0.1029401499927043,-0.0503059476613998,0.1133659929037094,-0.0173550341278314,standing
1783088881473886000,1.571885986328125,-0.1059103979751467,-0.0039973990730941,0.0895768105506897,-0.0622502230107784,0.1079706996679306,-0.017613360658288,standing
1783088881483929900,1.581929931640625,-0.0819241038404405,-0.0015890227571129,0.0293020823299884,-0.0548133477568626,0.1029056310653686,-0.0266523957252502,standing
1783088881493974000,1.59197412109375,-0.040353053176403,0.0177747261434793,-0.0017599954098463,-0.0417316332459449,0.086150087416172,-0.0284774582833051,standing
1783088881504018200,1.60201806640625,-0.0024224048413336,0.0400406262263655,0.0044002807855606,-0.0282169431447982,0.0570568032562732,-0.0258557088673114,standing
1783088881514061800,1.612061767578125,0.0419797775954008,0.0480092670179903,-0.0099777886569499,-0.0089484397321939,0.0294747091829776,-0.0187474675476551,standing
1783088881524106000,1.62210595703125,0.0745945646699517,0.0340389015935361,0.0004559270739555,0.0069412570446729,-0.0034140162169933,-0.0095902923494577,standing
1783088881534151200,1.632151123046875,0.08129318552576,0.0132468734554946,-0.003327098596096,0.0122017990797758,-0.0374201834201812,-0.0046852817758917,standing
1783088881544194800,1.64219482421875,0.0527517123047262,-0.0041761166408658,-0.0155891987979412,0.0129266586154699,-0.0653987303376197,0.0006268920842558,standing
1783088881554239000,1.652239013671875,0.0102904348026961,-0.0164924312479794,0.009677344405651,0.0152739696204662,-0.0806392058730125,-0.0009936413262039,standing
1783088881564283000,1.662282958984375,-0.0389566303819417,-0.0108824824117124,0.0715308662503957,0.0165899973362684,-0.0863083973526954,-0.0030977323185652,standing
1783088881574327000,1.6723271484375,-0.0602305968180298,0.0031966040842235,0.0935720176666975,0.0147036798298358,-0.0855453982949256,-0.0078141903504729,standing
1783088881584371200,1.68237109375,-0.0920499226659536,0.027240181364119,0.1200666413605213,0.0086005125194787,-0.0792684331536293,-0.0112364217638969,standing
1783088881594414800,1.692414794921875,-0.0819564717400819,0.0235278828427195,0.1330225690454244,-0.0004425172228366,-0.0777243375778198,-0.0127107482403516,standing
1783088881604459000,1.702458984375,-0.0554687892436981,0.0252858324259519,0.1254956806719303,-0.009271215647459,-0.0777572020888328,-0.0227107815444469,standing
1783088881614504200,1.712504150390625,-0.013354790809378,0.009817337398231,0.0925625483632087,-0.0166441760957241,-0.0765984654426574,-0.0312640555202961,standing
1783088881624547800,1.7225478515625,0.060892275597155,0.0092497666433453,0.0545715481430292,-0.0038015081081539,-0.0732249245047569,-0.0337456688284873,standing
1783088881634592000,1.732592041015625,0.0989133056294172,0.0258197931721806,0.0342436303853988,0.0152914924547076,-0.0617192648351192,-0.0308771766722202,standing
1783088881644636000,1.742635986328125,0.0764919957891106,0.0069600482709705,0.0383440514415502,0.0259969215840101,-0.0480179749429225,-0.0311465132981538,standing
1783088881654680000,1.75268017578125,0.0450998093120753,0.0019791911184787,0.1058615903973579,0.0209992323070764,-0.041108138859272,-0.0340261869132518,standing
1783088881664724000,1.762723876953125,0.0084173344071954,0.0206023507848382,0.140513217061758,0.0073636341840028,-0.0416988208889961,-0.0356253534555435,standing
1783088881674768000,1.772767822265625,-0.038477760823816,0.0168314539439976,0.1079582704156637,-0.0006386321038007,-0.0421864427626132,-0.0355566442012786,standing
1783088881684813000,1.78281298828125,-0.0382272201288491,0.0353331791877746,0.0763046565234661,0.0018034868407994,-0.0331579521298408,-0.0421425700187683,standing
1783088881694857000,1.79285693359375,-0.0327221929717808,0.0447524571791291,0.0602332271665334,0.006624074652791,-0.0214634779840707,-0.044078953564167,standing
1783088881704900900,1.80290087890625,-0.0282321880761533,0.0038245267242193,0.0753010324388742,0.0052134077996015,-0.0064626452513039,-0.0435842126607894,standing
1783088881714945000,1.812945068359375,-0.0314073840461671,-0.0174490013204514,0.1029839891344308,-0.0064746737480163,0.0065783215686678,-0.03709302470088,standing
1783088881724989000,1.822989013671875,-0.024454423103109,-0.0332620720021426,0.1507300751715898,-0.028390634804964,0.0090752560645341,-0.0301303826272487,standing
1783088881735033000,1.833033203125,0.0352386327721178,-0.0456568586729466,0.1315717857152223,-0.049538530409336,0.0048107355833053,-0.0238714218139648,standing
1783088881745077000,1.843076904296875,0.0878908302251249,-0.0558574963003397,0.1042243445843458,-0.0579790994524955,-0.0026676841080188,-0.0107185430824756,standing
1783088881755122000,1.853121826171875,0.1041875927705317,-0.0196824594609439,0.0341740722805261,-0.0495115779340267,-0.0048956852406263,-0.0019934941083192,standing
1783088881765166000,1.863166015625,0.1236044600978493,0.0017053426131606,-0.0027975217640399,-0.0295397322624921,-0.011081613600254,0.00346299726516,standing
1783088881775210000,1.8732099609375,0.1466344764210283,0.0473535795882344,-0.0452279657363891,-0.0062684980221092,-0.016003668308258,0.0048957779072225,standing
1783088881785254000,1.88325390625,0.0584068885222077,0.0718215197600424,-0.0233230079203844,0.0129137681797146,-0.0130971949547529,0.0110846944153308,standing
1783088881795298000,1.893298095703125,-0.0283293648403137,0.0428526149071753,0.0260252526164054,0.0190417021512985,-0.0106638632714748,0.0128096248954534,standing
1783088881805342000,1.903342041015625,-0.0548711156114935,-0.006676701284945,0.0998959599912166,0.0081428214907646,-0.0097739696502685,0.0049977432936429,standing
1783088881815386000,1.91338623046875,-0.0918118761263787,-0.0759193104676902,0.1418506031453609,-0.0110207516700029,-0.0060101239942014,-0.0064154993742704,standing
1783088881825430000,1.923429931640625,-0.1225683219831436,-0.1006723511911928,0.1461234581589698,-0.0357081480324268,-0.0064453156664967,-0.0212322305887937,standing
1783088881835475000,1.933474853515625,-0.0896598126590251,-0.0935616424031555,0.1114864445418119,-0.0495581813156604,-0.0121306329965591,-0.0338098034262657,standing
1783088881845519000,1.94351904296875,-0.0049386254459619,-0.0790279440075159,0.0642144057571888,-0.0440449081361293,-0.0102410139515995,-0.040535319596529,standing
1783088881855563000,1.95356298828125,0.0166525171805173,-0.0262586229808628,0.0521259085565805,-0.0279916394501924,-0.0095435315743088,-0.048020664602518,standing
1783088881865607000,1.96360693359375,0.0316786752682179,0.0330928529150784,0.019722353079915,-0.0089230332523584,-0.0179823823273181,-0.0533109419047832,standing
1783088881875650800,1.97365087890625,0.0500551666971296,0.0520151416584849,-0.0229570972174406,0.0120525564998388,-0.0191842652857303,-0.0562995411455631,standing
1783088881885695000,1.983695068359375,0.0066945292025804,0.0353717576324939,0.0207458509087562,0.0203189030289649,-0.0232477840036153,-0.0546614602208137,standing
1783088881895739100,1.9937392578125,-0.0703035164125263,-0.0222181154184043,0.0530073675662279,0.0074923206120729,-0.0261908434331417,-0.0530150942504406,standing
1783088881905783800,2.00378369140625,-0.0482359153807163,-0.0888140094846487,0.0808136583805084,-0.0101383375003933,-0.0309471953660249,-0.048807930201292,standing
1783088881915828000,2.013827880859375,0.020387758186087,-0.1002628936074674,0.1118091006249189,-0.0238951612263917,-0.0317283049225807,-0.044142335653305,standing
1783088881925872000,2.0238720703125,0.070077087245509,-0.0560398671299219,0.1119143145650625,-0.0261453241109848,-0.0268417336046695,-0.0360804162919521,standing
1783088881935916000,2.033916015625,0.1153374939467757,-0.0472141711175441,0.0643558600544929,-0.0249647442251443,-0.0164988134056329,-0.0243185646831989,standing
1783088881945960000,2.0439599609375,0.1518715002916753,-0.0201373636215925,0.0541752423018217,-0.0230262801051139,-0.0134514905512332,-0.0159771926701068,standing
1783088881956003800,2.05400390625,0.1641808737013489,0.0216470375321805,0.0472960041821002,-0.0173263177275657,-0.0186617001891136,-0.0026254353579133,standing
1783088881966048000,2.064048095703125,0.1406259567212313,0.0371647785291075,0.0352191974192857,-0.0083056055009365,-0.0259638987481594,0.0032439865171909,standing
1783088881976093000,2.074093017578125,0.0873355344299227,0.0646694560483098,0.029935119536519,0.0028067000675946,-0.034028485417366,0.0072230156511068,standing
1783088881986136800,2.08413671875,0.0334859438858926,0.0213305189289152,0.0254997674375772,0.0117125762626528,-0.0328821055591106,0.0153908608481287,standing
1783088881996181000,2.094180908203125,-0.0178557554904371,-0.0342822088301181,0.0543652119159698,0.0140577564015984,-0.0333199277520179,0.0202881470322608,standing
1783088882006225000,2.104224853515625,-0.0792124337289482,-0.0619306787341833,0.061726096072793,0.012690701521933,-0.0262789670377969,0.0214641653001308,standing
1783088882016269000,2.11426904296875,-0.0867955092690885,-0.0914738763436675,0.0631780484467744,0.0114456741139292,-0.0163842588663101,0.019762672483921,standing
1783088882026313000,2.12431298828125,-0.0332476050853729,-0.0816774356029927,0.1143529398888349,0.0057918904349207,-0.0083251353353261,0.0155330095440149,standing
1783088882036356900,2.13435693359375,0.0213287653632462,-0.0331305545769631,0.11546236243546,-0.0046724686399102,-0.010277765803039,0.0137236574664711,standing
1783088882046401000,2.144401123046875,0.083751757659018,0.0066937985502183,0.1025327382355928,-0.0128938071429729,-0.0062720845453441,0.0107653178274631,standing
1783088882056446000,2.154446044921875,0.081910075315088,0.0304126739203929,0.0957020154327154,-0.0175969488918781,-0.0050606126897037,0.0065806927159428,standing
1783088882066489900,2.16448974609375,0.0654501580972224,0.0024282500602304,0.0601040478289127,-0.0152883594855666,-0.003310561645776,0.0088016707450151,standing
1783088882076534000,2.174533935546875,0.0174379684697836,-0.0133972417116165,0.0344476285248994,-0.01036231033504,-0.0050386865623295,0.0060120094567537,standing
1783088882086578000,2.184577880859375,0.0088210198372602,-0.0246969266220927,0.0393318934351205,-0.0060967272147536,-0.0147430868819355,0.0046404143795371,standing
1783088882096622000,2.1946220703125,-0.034544878354296,-0.0565437249988317,0.0331979207247495,-0.0078256512060761,-0.0240748040378093,0.0078055812045931,standing
1783088882106666000,2.204666015625,-0.0327321298439055,-0.0654753656037151,0.0305728329181671,-0.0086510181427001,-0.0261607617139816,0.0062116459012031,standing
1783088882116710000,2.2147099609375,-0.0381954367510974,-0.0709879915453493,0.0373603011012077,-0.0105109699070453,-0.0219633542001247,0.0083405766636133,standing
1783088882126755000,2.224755126953125,-0.0254050018262118,-0.0548126634225249,0.0858054753184318,-0.0117555186152458,-0.0147874262183904,0.0098261516541242,standing
1783088882136799000,2.234799072265625,-0.0293690831515938,-0.0418967754870653,0.1033610057532787,-0.0083583900704979,-0.0070797055959701,0.009887671098113,standing
1783088882146843000,2.2448427734375,-0.0079989628646522,-0.0380284096211194,0.1195873334109783,-0.0012064179172739,0.0025840669404715,0.0125164138153195,standing
1783088882156887000,2.254886962890625,0.0464120609544217,-0.02218888932392,0.1226642566382884,0.0015603399369865,0.0087173264473676,0.0129068326205015,standing
1783088882166931500,2.264931396484375,0.0925744579967111,-0.0431779013387858,0.1164963816583156,-0.0002187581267207,0.0101411882787942,0.0152581688016653,standing
1783088882176975600,2.2749755859375,0.1172005113396793,-0.0412396267525851,0.1057785882890224,-0.0067871790379285,0.0066306088119745,0.020293939858675,standing
1783088882187019300,2.285019287109375,0.093235698384419,-0.0372987801723182,0.0683288553386926,-0.0104473205283284,0.0071030734106898,0.0244446396827697,standing
1783088882197064400,2.295064453125,0.0419110962733626,-0.0517906852528452,0.0350841728627681,-0.0104587720707058,0.0154012171551585,0.030558992177248,standing
1783088882207108600,2.305108642578125,-0.017513298728317,-0.0553949933551251,0.0397597634583711,-0.0118576232343912,0.0205117966979742,0.0284673832356929,standing
1783088882217152300,2.31515234375,-0.0635782267455011,-0.0634375761657953,0.0808165809899568,-0.0184332355856895,0.0276144482195377,0.0297811217606067,standing
1783088882227196400,2.325196533203125,-0.055419543274492,-0.05611337075755,0.0989279917418956,-0.0237835794687271,0.0261859707534313,0.0303186140954494,standing
1783088882237240300,2.335240234375,0.0006078297000378,-0.0203783327706158,0.0582405920445919,-0.0236522853374481,0.0120861306786537,0.030021671205759,standing
1783088882247284500,2.345284423828125,0.0532233484044671,0.0084128774277865,-0.0232955353915691,-0.0062337736599147,0.0064383284188807,0.0322584547102451,standing
1783088882257328400,2.355328369140625,0.0246725958984345,0.0091271631769835,-0.0179974289834499,0.018587153404951,0.0173897799104452,0.0364843606948852,standing
1783088882267372300,2.365372314453125,-0.0190128896363079,0.0092781159549951,0.0545043281257152,0.0238193068653345,0.0234525967389345,0.0395379103720188,standing
1783088882277417500,2.37541748046875,0.0217699332594871,-0.069850073556602,0.1120370641618967,0.0104952454566955,0.0269953999668359,0.0440668836236,standing
1783088882287461600,2.385461669921875,0.062574529595673,-0.0803105311639607,0.1805593962460756,-0.013165982440114,0.0308224968612194,0.0441830269992351,standing
1783088882297505300,2.39550537109375,0.0532242982525378,-0.0548300529487431,0.2021340991944074,-0.0313654914498329,0.0352508015930652,0.0430788770318031,standing
1783088882307549400,2.405549560546875,0.0758794168487191,-0.0231029354289174,0.1394359432190656,-0.0385658219456672,0.0299025494605302,0.0401273667812347,standing
1783088882317593300,2.41559326171875,0.0938184667084366,0.0173984401769936,0.046878655552864,-0.0333915650844574,0.0245312191545963,0.0368404947221279,standing
1783088882327637500,2.425637451171875,0.0511417198248207,0.0094362291261553,-0.006368950510025,-0.0178094692528247,0.0207159128040075,0.0325786396861076,standing
1783088882337681400,2.435681396484375,-0.0069392246786504,-0.0406771705642342,-0.0312906257987022,-0.0018952174577862,0.0182570163160562,0.0294787194579839,standing
1783088882347726300,2.445726318359375,-0.0703702249731868,-0.0835993435762822,0.0063444005906581,0.0096698785200715,0.0127635076642036,0.0282592214643955,standing
1783088882357770500,2.4557705078125,-0.0808688226338475,-0.1152082415439188,0.0299386266678571,0.0119535382837057,0.0046358061954379,0.0254349391907453,standing
1783088882367814400,2.465814453125,-0.043874213039875,-0.1019273196883499,0.0585205780297517,0.0100294584408402,-0.0060838349163532,0.0249770060181617,standing
1783088882377858300,2.4758583984375,0.0016661065813153,-0.0715926794402301,0.0754419022142887,0.0072147641330957,-0.0139891626313328,0.0242323856800794,standing
1783088882387902500,2.48590234375,0.0384122213069349,-0.053908846450597,0.0697521661400795,0.0075924582779407,-0.0066109136678278,0.0234342068433761,standing
1783088882397946400,2.4959462890625,0.0882283916164189,-0.0630972382955253,0.1033282725274562,0.0053628599271178,-0.0007889769040048,0.0232057087123394,standing
1783088882407990500,2.505990478515625,0.1288564623419195,-0.0709608112774789,0.0908230112195015,0.0008819268550723,0.0052810292690992,0.0218484960496425,standing
1783088882418035500,2.516035400390625,0.1461019039142876,-0.0371085182972252,0.0835363613426685,-0.0041969874873757,0.0088944062590599,0.019936079159379,standing
1783088882428079400,2.526079345703125,0.1102479887880384,-0.003398848658055,0.0908791253209114,-0.0098216878250241,0.0106622986495494,0.014303128235042,standing
1783088882438123500,2.53612353515625,0.0531129468325525,-0.0058361588075757,0.0622118337631225,-0.0137751502916216,0.0024826652370393,0.0149066001176834,standing
1783088882448167400,2.54616748046875,-0.0368797510426491,-0.0073055007077753,0.0338753815948963,-0.0141261583194136,-0.0044937566854059,0.0166794285178184,standing
1783088882458211300,2.55621142578125,-0.1074020247723907,-0.0506108278185129,0.0215384625911712,-0.0072594638913869,-0.0128273218870162,0.0180861111730337,standing
1783088882468255500,2.56625537109375,-0.0729069038439542,-0.0533580807000398,0.0262409411936998,0.0019213047344237,-0.0267234705388546,0.020587021484971,standing
1783088882478299400,2.57629931640625,0.0126211427725851,-0.0335293446362018,-0.0050917701810598,0.0169987902045249,-0.0391047708690166,0.0194240193814039,standing
1783088882488344300,2.58634423828125,0.0409286611072719,0.0091539050534367,0.0019505495458841,0.0259593185037374,-0.0489659123122692,0.018193207681179,standing
1783088882498388200,2.59638818359375,-0.0028683219779282,0.018880203167349,0.0302916778892278,0.0306882914155721,-0.0490498021245002,0.0088969115167856,standing
1783088882508432400,2.606432373046875,-0.0310848010282963,0.0104794545687735,0.0575771596997976,0.0246285926550626,-0.0470252558588981,0.0027624184731394,standing
1783088882518476500,2.6164765625,-0.0528577299624681,-0.0102520755536854,0.1127361523419618,0.0106294201686978,-0.0393460318446159,-0.0020067705772817,standing
1783088882528520400,2.6265205078125,-0.0568024490002542,-0.0337798122659325,0.1583423037409782,-0.0042067877948284,-0.0338744595646858,-0.0078228125348687,standing
1783088882538564400,2.636564453125,0.0099983930535614,-0.0285337283059954,0.1369517251878976,-0.0097232591360807,-0.0315146334469318,-0.0072789946570992,standing
1783088882548608300,2.646608154296875,0.0989185663264244,-0.0401603070832788,0.0961573579847812,-0.004155496135354,-0.0231810435652732,-0.0037889631930738,standing
1783088882558652400,2.65665234375,0.127755588427931,-0.0187410869576036,0.0825531955242157,0.0002525681629776,-0.0286317355930805,0.0019597362261265,standing
1783088882568697300,2.666697265625,0.1163226325266063,0.0013151742517948,0.0216781633228063,0.0060277925804257,-0.031731940805912,0.004238705150783,standing
1783088882578741200,2.6767412109375,0.0461762794371694,0.0042126492589712,0.0196492878437042,0.0066728107631206,-0.0339689962565898,0.0058576404117047,standing
1783088882588785400,2.686785400390625,-0.0314843948051333,0.0122999479942023,0.0457908603161573,0.0005252235569059,-0.0400388017296791,0.0049369912594556,standing
1783088882598829600,2.69682958984375,-0.0698742581497877,0.0071197688773274,0.0614496172189712,-0.0066669089719653,-0.0440109074115753,0.0025606525596231,standing
1783088882608873500,2.70687353515625,-0.0854601690120995,-0.0486531178794801,0.0887011967599391,-0.0129704531282186,-0.0382474213838577,0.001394752645865,standing
1783088882618917400,2.71691748046875,-0.0552256281375884,-0.0859457605719566,0.1142068094164133,-0.0084864888340234,-0.0346580147743225,-8.9996028691e-06,standing
1783088882628961300,2.726961181640625,-0.0370912749014794,-0.0657706952884793,0.1317424661070108,-0.0067437156103551,-0.0279069021344184,-0.0042663291096687,standing
1783088882639006500,2.73700634765625,0.0136258628357201,-0.0593628740727901,0.1132470244735479,-0.0130191892385482,-0.0238751415163278,-0.0102387331426143,standing
1783088882649050400,2.74705029296875,0.0742692782383412,-0.0178869543462991,0.099915833735466,-0.0210881941020488,-0.0237402562052011,-0.0089471330866217,standing
1783088882659094300,2.75709423828125,0.1191292143799364,0.006982406233251,0.0756944156706333,-0.025792934000492,-0.0233828593045473,-0.0018751083407551,standing
1783088882669138400,2.767138427734375,0.1109042607396841,0.0270695009723305,0.0220733001202344,-0.0191099978983402,-0.0125619042664766,0.0083711370825767,standing
1783088882679182300,2.777182373046875,0.0637411622222512,0.0135882342390716,0.0189548758387565,-0.0070812972262501,-0.0039058313705027,0.0107631888240575,standing
1783088882689226500,2.7872265625,0.0218053698990494,-0.0220075414076447,0.0401455479055643,-0.000813121907413,0.0016920580528676,0.0131844682618975,standing
1783088882699270400,2.7972705078125,0.0239531955827027,-0.0280158419117331,0.0290367093920707,-0.0049633919261395,-0.0026206653565168,0.0134286805987358,standing
1783088882709315300,2.8073154296875,0.0222782481078058,-0.0209903271891176,0.0695779786169528,-0.0098475227132439,-0.0067655486054718,0.0152404494583606,standing
1783088882719359500,2.817359375,-0.0268190333425998,0.0316898542493581,0.071774611878395,-0.0087039610370993,-0.0066851205192506,0.013091810978949,standing
1783088882729403400,2.8274033203125,-0.073899787338823,0.0164596980221569,0.0254705413430929,0.0023534831125289,-0.0004966757260262,0.0131500381976366,standing
1783088882739447300,2.837447265625,-0.0774078685250133,-0.0056305532328784,0.0366997913658618,0.0160905998200178,0.0057795960456132,0.0070122512988746,standing
1783088882749491500,2.847491455078125,-0.0544977522544562,-0.0212212133355438,0.0430810168355703,0.0265453737229108,0.0094877919182181,0.0050631249323487,standing
1783088882759535400,2.857535400390625,-0.0260069132421165,-0.0391297949917614,0.0690343732595443,0.028838088735938,0.0173507742583751,0.0074887322261929,standing
1783088882769579500,2.86757958984375,0.0059265405047684,-0.0632500907696783,0.0958726958245038,0.0236806608736515,0.0344583950936794,0.0126870218664407,standing
1783088882779624400,2.87762451171875,0.0613336626891046,-0.0763204386144876,0.1574503233373165,0.0061011360958218,0.0504163242876529,0.0202288255095481,standing
1783088882789668400,2.88766845703125,0.1428942669793963,-0.0285990486271679,0.1552753173857927,-0.012856894172728,0.0547611974179744,0.0303032882511615,standing
1783088882799712500,2.89771240234375,0.1651576097790151,0.0542775336325168,0.0990162545472383,-0.020418407395482,0.0507645905017852,0.0441655740141868,standing
1783088882809756400,2.90775634765625,0.1245322424672543,0.0832569598793983,0.030600889968872,-0.010033038444817,0.0446004718542099,0.0540666207671165,standing
1783088882819800300,2.91780029296875,0.0612334171850234,0.0715586310401558,-0.0156856449097394,0.0030508053023368,0.0400296859443187,0.0665613710880279,standing
1783088882829844500,2.927844482421875,-0.0034013328760862,0.0165986681014299,-0.0116933604031801,0.017268568277359,0.0394946448504924,0.0804645717144012,standing
1783088882839888400,2.937888427734375,-0.0570663606334477,-0.0111772275745868,0.0385492186248302,0.0216547958552837,0.0445554517209529,0.0883973315358161,standing
1783088882849932500,2.9479326171875,-0.0422906701754778,-0.0272498259752988,0.104113869947195,0.0183151382952928,0.0480561703443527,0.0869053602218627,standing
1783088882859977500,2.9579775390625,-0.0039722646318376,-0.0186678755909204,0.1336819097369909,0.0112718772143125,0.0486186295747756,0.0832653567194938,standing
1783088882870021400,2.968021484375,-0.014048618292436,-0.0257816531188786,0.1558054787397384,0.0033497179392725,0.041501373052597,0.0738498121500015,standing
1783088882880065500,2.9780654296875,-0.0122216220609843,-0.0113837099321186,0.128118430390954,-0.0055939760059118,0.0201593320816755,0.0598594285547733,standing
1783088882890109200,2.988109130859375,0.0152190503112971,0.0092022742398083,0.0452951857537031,-0.0140878614038228,-0.0060518211685121,0.0456811226904392,standing
1783088882900153300,2.9981533203125,0.0220149940617382,0.0247904501244425,0.0019259996265172,-0.0146457934752106,-0.0346645601093769,0.038893524557352,standing
1783088882910197500,3.008197509765625,-0.0133255647148936,0.041878655308485,-0.0529547605961561,-0.0033621368929743,-0.0498224459588527,0.0426639653742313,standing
1783088882920241400,3.018241455078125,-0.0585319031413644,-0.0007173544891178,-0.0507236405432224,0.0123262787237763,-0.0532781668007373,0.0383552350103855,standing
1783088882930286300,3.028286376953125,-0.0623966157454997,-0.0142930215075612,0.0189613055795431,0.0195378493517637,-0.0582037381827831,0.0338950306177139,standing
1783088882940330500,3.03833056640625,-0.0113101332392543,-0.0079918755367398,0.0659177025437355,0.0174086522310972,-0.0565214231610298,0.0273561738431453,standing
1783088882950374400,3.04837451171875,0.0615726590767502,-0.0250004396133124,0.1207856032848358,0.0160713195800781,-0.0531629361212253,0.0210096333175897,standing
1783088882960418600,3.05841845703125,0.0977911697316914,-0.0002187573172152,0.0949818844646215,0.0261985212564468,-0.0392218194901943,0.013498455286026,standing
1783088882970462200,3.068462158203125,0.0537775482211261,0.0267342776685953,0.0997591818690299,0.0356110408902168,-0.0166197195649147,0.0095055028796195,standing
1783088882980506400,3.07850634765625,0.0311224296249449,0.0074906480163335,0.1338543436944484,0.0362182408571243,-0.0005318294279277,0.0056612296029925,standing
1783088882990550500,3.088550537109375,0.0105271661680191,-0.0357930517844855,0.1570417425364255,0.0213061347603797,0.0071102250367403,0.0058940625749528,standing
1783088883000595500,3.098595458984375,-0.0048029433023184,-0.0694642891094088,0.1460176596969365,-0.0021922669839113,0.0049810274504125,0.0071625262498855,standing
1783088883010639400,3.108639404296875,-0.0041022476870566,-0.0795062290437519,0.0914677388638258,-0.015964325517416,0.0030985896009951,0.0153894312679767,standing
1783088883020683300,3.118683349609375,0.0533044508166611,-0.071878218383342,0.0248310743957757,-0.0119799692183732,-0.0013595419004559,0.0205309316515922,standing
1783088883030727400,3.1287275390625,0.0740690794911235,-0.0312565773986279,-0.0536024108499288,0.0055503947660326,0.0061615114100277,0.0264102891087532,standing
1783088883040771600,3.138771484375,0.0316985490124672,-0.0082642627373337,-0.0290133285164833,0.0252170395106077,0.0159443672746419,0.0269873961806297,standing
1783088883050815200,3.148815185546875,0.062987275115028,-0.0232527191631495,0.0354793096601963,0.0303945448249578,0.0208623856306076,0.0274595096707344,standing
1783088883060859400,3.158859375,0.0687441581413149,-0.015223872616887,0.0908276873946189,0.0220801550894975,0.0189302619546651,0.0276043862104415,standing
1783088883070903300,3.1689033203125,0.0259404238771647,-0.0083911039873957,0.1106944173812866,0.0145536912605166,0.012250768020749,0.0289461873471736,standing
1783088883080948500,3.178948486328125,-0.0337079891387373,-0.0412672454118728,0.0657043520539999,0.0209545977413654,0.008725275285542,0.0341976769268512,standing
1783088883090992400,3.188992431640625,-0.0801030989583581,-0.0622333149425685,0.0395703783661127,0.0388217456638813,0.0087364455685019,0.0383364483714103,standing
1783088883101036300,3.199036376953125,-0.0532435874748975,-0.0964914122447371,0.0170832367479801,0.0527319684624671,0.0033470068592578,0.043101642280817,standing
1783088883111080400,3.20908056640625,0.0183829211696982,-0.0992399803005158,0.007737900775671,0.0609207637608051,0.0031116183381527,0.0433774925768375,standing
1783088883121124600,3.21912451171875,0.0834239870093762,-0.078169865873456,0.0328676658570766,0.0606280826032161,0.0075146225281059,0.0374114774167537,standing
1783088883131168300,3.229168212890625,0.1121593023020774,-0.0305358619086444,0.0878536400198936,0.0449357777833938,0.0099693331867456,0.0261586233973503,standing
1783088883141212400,3.23921240234375,0.1074680026806891,-0.0023155834659934,0.1246107145309448,0.0258257333189249,0.0048672491684556,0.020812327042222,standing
1783088883151257600,3.249257568359375,0.0717659901805222,-0.0046036944031715,0.1051432129949331,0.0181360151618719,-0.0037299883551895,0.02787353284657,standing
1783088883161301200,3.25930126953125,0.0084724255952984,0.0252735574662685,0.0628717589765787,0.0246644895523786,-0.0085676200687885,0.0324235409498214,standing
1783088883171345000,3.269344970703125,-0.036971228718385,-0.018368308122456,0.0537111319214105,0.027679031714797,-0.0114119639620184,0.0324859917163848,standing
1783088883181389000,3.27938916015625,-0.0399783015798777,-0.0404416082426905,0.0782715726822614,0.0195111166685819,-0.0185795947909355,0.0267351623624563,standing
1783088883191433000,3.289432861328125,-0.0399734792742878,-0.0399763288185,0.105756960979104,0.0047135232016444,-0.0211742594838142,0.0166914500296115,standing
1783088883201477000,3.29947705078125,-0.0170911277934908,-0.0712650549210607,0.1089823527663946,-0.0090619437396526,-0.0156708359718322,0.0080561507493257,standing
1783088883211521000,3.30952099609375,-0.035832726207748,-0.0671595192983746,0.1112415298700332,-0.0155548378825187,-0.0077609037980437,-0.0020102043636143,standing
1783088883221566000,3.31956591796875,0.0296998494759202,-0.0222422269463539,0.1091594628989696,-0.018145827576518,-0.0043829502537846,-0.0098036788403987,standing
1783088883231610000,3.329610107421875,0.0686233813058584,0.0372697002083063,0.0796136349409818,-0.0058132074773311,-0.0045670131221413,-0.0118687562644481,standing
1783088883241654000,3.339654052734375,0.061452320632711,0.0666378335118293,0.0471194785714149,0.0076986066997051,-0.0030697844922542,-0.0090197073295712,standing
1783088883251698000,3.349697998046875,0.0545727902520447,0.0741458710543811,0.0428647437363862,0.0108059290796518,-0.0092599410563707,-0.0034547997638583,standing
1783088883261741800,3.359741943359375,0.0597997311200946,0.0317854235783219,0.0331231019228696,0.0095585044473409,-0.0194566510617733,-3.87628097087e-05,standing
1783088883271786000,3.369785888671875,0.0704223204866051,0.0061547232374548,0.0014811784684658,0.0102914609014987,-0.0178294442594051,0.0016127668786793,standing
1783088883281830100,3.379830078125,0.0853250713903456,-0.0089053371198475,0.0387923797309398,0.0149948690086603,-0.0063895704224705,0.0044229347258806,standing
1783088883291874800,3.389874755859375,0.0918938553214073,0.0197938108809292,0.0959141968786716,0.0047629508189857,0.0008590621873736,-0.0020775103475898,standing
1783088883301919000,3.3999189453125,0.0941783860620111,0.0351680517539381,0.1251116497904062,-0.0096032051369547,0.0068386578932404,-0.0042213546112179,standing
1783088883311963100,3.409963134765625,0.0849541922513395,0.0625510025896132,0.1508662687718868,-0.0224058199673891,0.0079434905201196,-0.0082854107022285,standing
1783088883322007000,3.420007080078125,0.0155113112561404,0.0755748809441924,0.1082581301450729,-0.023605840280652,0.0055650216527283,-0.0069466396234929,standing
1783088883332051000,3.430051025390625,-0.059051616166532,0.0468608276352286,0.0640291123181581,-0.0203084200620651,0.0052063311450183,-0.0078899264335632,standing
1783088883342094800,3.4400947265625,-0.1052082410551607,0.0285687996193766,0.0228390237957239,-0.0143368141725659,0.0020294461864978,-0.013840228319168,standing
1783088883352139000,3.450138916015625,-0.0830348415613174,0.0204150115191936,0.0269072961479425,-0.009838574565947,0.0046460786834359,-0.0140502257272601,standing
1783088883362184000,3.460183837890625,0.0127479840226471,0.0197644386559724,0.0781838943988084,-0.0110692214220762,0.0114387366920709,-0.014202824793756,standing
1783088883372227800,3.470227783203125,0.0670968293257057,0.0176410167612135,0.1194698445111513,-0.0188500732183456,0.022015992552042,-0.0139937242493033,standing
1783088883382272000,3.48027197265625,0.0947078898288309,0.0540900482363998,0.1396171450048685,-0.0290718171745538,0.0280102342367172,-0.0170433111488819,standing
1783088883392316200,3.490316162109375,0.0963976695466786,0.0286316357225179,0.1336053373694419,-0.0394107960164547,0.027384964749217,-0.0206536930054426,standing
1783088883402360000,3.500360107421875,0.092078491173312,-0.0152168583542108,0.1014122097730636,-0.0414467826485633,0.0179158300161361,-0.0183766894042491,standing
1783088883412404000,3.510404052734375,0.0557840657379478,-0.0443169883713126,0.0388864877551794,-0.0366126112639904,0.0047830929979681,-0.0173252057284116,standing
1783088883422447900,3.52044775390625,-0.0161465404197573,-0.0569452915370464,0.0093915132015943,-0.0287054181098938,-0.0053883176296949,-0.0135243413969874,standing
1783088883432493000,3.5304931640625,-0.0830024005964398,-0.0727191992521286,-0.0053705871224403,-0.0160730890929698,-0.0115141961723566,-0.0117406221106648,standing
1783088883442537000,3.540536865234375,-0.0684348729964345,-0.0694034988328814,0.0232382522463798,-0.0047748936340212,-0.014023158699274,-0.0079639935865998,standing
1783088883452580900,3.550580810546875,-0.0178882695205509,-0.0528049768619239,0.051593409115076,-0.0022269412875175,-0.0223136153072118,-0.0118926912546157,standing
1783088883462625000,3.560625,0.0307394216567277,-0.0288517082139849,0.0604845715790987,-0.0009432976366952,-0.0210520755499601,-0.0079445550218224,standing
1783088883472669000,3.5706689453125,0.0684901833802461,-0.0400296664409339,0.0771516287416219,-0.0029808823019266,-0.0185982957482337,-0.0074126250110566,standing
1783088883482713000,3.580713134765625,0.0799029002111405,-0.0300033624671399,0.088168112796545,-0.0047675967216491,-0.0122831417247653,-0.0072781355120241,standing
1783088883492757000,3.590757080078125,0.0535548453811556,-0.0139693425111472,0.0979804817587137,-0.011753068305552,-0.0087968977168202,-0.007037678733468,standing
1783088883502801000,3.60080078125,0.0509863831326365,-0.0268726632259786,0.0918400793075561,-0.0179869942367076,-0.0119167901575565,-0.0066643040627241,standing
1783088883512846000,3.61084619140625,0.0274838539268821,-0.0250527543224394,0.0531605123013258,-0.0147119471803307,-0.0128943007439374,-0.0009267583955079,standing
1783088883522890000,3.620889892578125,-0.0267480869982391,-0.0184618316248059,0.0278700037002563,-0.0075192819349467,-0.0152203068137168,0.0002437010407447,standing
1783088883532934000,3.630933837890625,-0.0288553614757955,-0.0474558709189295,0.0289987154692411,-0.0018355099018663,-0.0147887021303176,-0.0058684861287474,standing
1783088883542978000,3.64097802734375,-0.0318044936049729,-0.0507433681569993,0.0473889431625604,-0.0017335107550024,-0.0140105262398719,-0.0120014799758791,standing
1783088883553022000,3.65102197265625,-0.0015711948394775,-0.0292969677634537,0.0738268682330846,-0.0073094246909022,-0.0146858654916286,-0.015601210296154,standing
1783088883563066000,3.661066162109375,-0.003156929660961,-0.0344834304906427,0.1015583402454853,-0.0097656575962901,-0.0123614575713872,-0.0179751515388488,standing
1783088883573110000,3.671110107421875,0.0040725101359188,-0.0264066531494259,0.0931090763300657,-0.0050467466935515,-0.0086092092096805,-0.0169390123337507,standing
1783088883583155000,3.681155029296875,0.0073405720211565,-0.0208409818463027,0.0613280366659164,0.0017464442644268,-0.0002114623785018,-0.0141509491950273,standing
1783088883593199000,3.69119921875,0.0256839648980647,-0.0208598326772451,0.0948766705244779,-0.0001830717083066,0.0021700803190469,-0.0144869443029165,standing
1783088883603242800,3.70124267578125,0.0157289725948125,-0.0209115628644824,0.1005003556251525,-0.0126394750550389,0.0022385234478861,-0.0098818056285381,standing
1783088883613287000,3.711286865234375,-0.0040059477057307,-0.0265161048732697,0.0906996771007776,-0.0218378733843565,-0.0012328708544373,-0.0022015129216015,standing
1783088883623331000,3.7213310546875,0.0191949682049453,-0.020709026029706,0.0717722737908363,-0.0254720225930213,-0.0090601677075028,0.0077880043536424,standing
1783088883633375000,3.731375,0.0913948928233236,0.0002383388005197,0.0285182384759187,-0.0192962046712636,-0.0213180165737867,0.0193867366760969,standing
1783088883643419100,3.741419189453125,0.1398832485951483,-0.002920563621819,-0.0234007493317127,-0.0057244701310992,-0.0285258628427982,0.0310433935374021,standing
1783088883653464000,3.751464111328125,0.1262243602726608,0.0129851537793874,-0.0315858093529939,0.0116543062031269,-0.0273820292204618,0.0395860746502876,standing
1783088883663508000,3.761508056640625,0.0567189354352653,0.0208024034015834,0.0096703301429748,0.0216305069625377,-0.0268081184476614,0.0429155603051185,standing
1783088883673552100,3.77155224609375,0.0125512924067676,0.0079474518731236,0.092463179641962,0.0206691622734069,-0.0231243092566728,0.0430989563465118,standing
1783088883683595800,3.781595703125,-0.0093897596359252,-0.0298348740324378,0.1620627855688333,0.0087712239474058,-0.0128026958554983,0.043562613427639,standing
1783088883693640000,3.791639892578125,-0.0365733154419809,-0.0367073901504278,0.2057797622203827,-0.0157424304634332,-0.002918385900557,0.0351378694176673,standing
1783088883703684000,3.80168408203125,-0.037321941852197,-0.0299945946387946,0.1850748278439044,-0.0334050469100475,0.001049724407494,0.0242916122078895,standing
1783088883713728000,3.81172802734375,-0.0351005394756794,-0.0077473992563784,0.1213426526457071,-0.0359361693263053,0.0086724739521741,0.0151336975395679,standing
1783088883723773000,3.82177294921875,-0.0469653839882463,-0.0151326872020959,0.0675946958452463,-0.0302271507680416,0.0152480853721499,0.0111818313598632,standing
1783088883733817000,3.831817138671875,-0.0341247532460838,-0.0151690736897289,-4.20855760574e-05,-0.0171261560171842,0.018840555101633,0.0110912546515464,standing
1783088883743861000,3.841861083984375,0.0163565299086272,-0.0207343066014349,-0.0119622404724359,-0.0029663948807865,0.0164764672517776,0.0138585455715656,standing
1783088883753905200,3.8519052734375,0.0462521942175924,-0.0014468378074467,-0.0017944822013378,0.0028089901898056,0.0122127048671245,0.015925358980894,standing
1783088883763948800,3.86194873046875,0.0489205366440117,0.010293868868798,0.0360948112100362,0.003392755286768,0.0136880967766046,0.012206788174808,standing
1783088883773993000,3.871992919921875,0.0300382145848125,0.0114702191717922,0.1048071129083633,-0.0016031228005886,0.0164511669427156,0.0169131904840469,standing
1783088883784036900,3.882036865234375,0.0236445680249482,0.0103723409324884,0.1309399175524711,-0.0104749109596014,0.0159952342510223,0.0210898257791996,standing
1783088883794082000,3.89208203125,0.0232652863837778,-0.0037707507103681,0.1255506257295608,-0.0136049762368202,0.0184194333851337,0.025466188788414,standing
1783088883804126000,3.9021259765625,0.0198443720243871,-0.009214987590909,0.1064233159333467,-0.014074757695198,0.025918360799551,0.0322460643947124,standing
1783088883814169900,3.912169921875,0.0253182733908295,-0.0180381993852555,0.0778910489320754,-0.016096631065011,0.0299811866134405,0.040525808930397,standing
1783088883824214000,3.922214111328125,0.0471894020024687,-0.0330832083038985,0.0577297199130058,-0.0244871862232685,0.0341037586331367,0.0433945693075656,standing
1783088883834258200,3.932258056640625,0.0622839491512626,-0.0310237915560603,0.0443693030804395,-0.0303862486034631,0.0315431505441665,0.0459931753575801,standing
1783088883844301800,3.9423017578125,0.104341906549409,-0.0230025437943637,0.0343815775513648,-0.02877077460289,0.0322653986513614,0.0468288771808147,standing
1783088883854346000,3.952345947265625,0.1230216917738318,0.015885113004595,0.0437689990997314,-0.0220451205968856,0.0311929620802402,0.0463866889476776,standing
1783088883864390000,3.962389892578125,0.0978034446913748,0.0553378563404083,0.0499631775647401,-0.0133999669924378,0.0284371227025985,0.0476716645061969,standing
1783088883874435000,3.97243505859375,0.0386412077572196,0.0340935543902218,0.058626376491785,-0.0085550919175148,0.0247097797691822,0.0500635579228401,standing
1783088883886362000,3.984362060546875,-0.0874156139288097,0.0150217741735279,0.0761228702157735,-0.0103412736207246,0.0227616764605045,0.0499793998897075,standing
1783088883896406000,3.994406005859375,-0.1717439293667673,-0.0112283732399344,0.0908054755628108,-0.01892826333642,0.0192404668778181,0.0482067018747329,standing
1783088883906450000,4.004449951171875,-0.2067394010327756,-0.0170129479907453,0.1038122566521167,-0.0285127144306898,0.0150542426854372,0.0546704567968845,standing
1783088883916493800,4.014493896484375,-0.1646280329469591,-0.0314938932858407,0.0847895762741565,-0.0361549220979213,0.0116008091717958,0.0625589340925216,standing
1783088883926538000,4.0245380859375,-0.045676732417196,-0.0610517039425671,0.0639291590750217,-0.0396953262388706,-0.0025584185495972,0.0682024359703064,standing
1783088883936582100,4.03458203125,0.156321027046442,-0.03739785663262,0.0414373412817716,-0.0374637581408023,-0.0141131542623043,0.0690609142184257,standing
1783088883946626800,4.044626708984375,0.2930485880896449,0.0161333886772394,0.0434065955281257,-0.0313747078180313,-0.0321651250123977,0.0849661156535148,standing
1783088883956671000,4.0546708984375,0.2597913383930921,0.0567171818695962,0.0685784461855888,-0.0291627366095781,-0.0533174164593219,0.1035145819187164,standing
1783088883966715100,4.064715087890625,0.1590654303837567,0.0510790298521518,0.0802501792788505,-0.0241157803684473,-0.0783769637346267,0.1181270778179168,standing
1783088883976759000,4.074759033203125,0.1459767431646585,-0.0253339093513786,0.0289221431016921,-0.0157128684222698,-0.0976741909980773,0.1267130672931671,standing
1783088883986803000,4.084802978515625,0.0798784233570098,-0.0582059591226279,-0.0006809680014848,-0.0030703109223395,-0.1023235321044921,0.1248895898461341,standing
1783088883996846800,4.094846923828125,-0.0213316149074584,-0.0380167191833257,0.0104798929601907,0.0103247491642832,-0.0914976522326469,0.1136641353368759,standing
1783088884006891000,4.10489111328125,-0.0944135830573737,-0.0225834415994584,0.068456865632534,0.013196968473494,-0.072502389550209,0.1081721633672714,standing
1783088884016936000,4.11493603515625,-0.1562275035440921,-0.043258711490035,0.1501274331033229,0.0079000480473041,-0.0538354180753231,0.0958985239267349,standing
1783088884026979800,4.124979736328125,-0.1517868907481432,-0.054917731232196,0.1728857928782701,-0.0087343221530318,-0.030858727172017,0.0840378701686859,standing
1783088884037024000,4.13502392578125,-0.1281138272810727,-0.0656600745208561,0.1595002416044473,-0.0294280424714088,-0.0132812019437551,0.0677699148654937,standing
1783088884047068000,4.14506787109375,-0.0784018479984253,-0.0440213664256036,0.1407838506966829,-0.0444746352732181,-0.0009057600982487,0.0537268035113811,standing
1783088884057112000,4.155112060546875,-0.003108779670298,-0.0293197641171515,0.1079044944018125,-0.0515518262982368,0.001140784472227,0.0449198782444,standing
1783088884067156000,4.165156005859375,0.0479705424427986,-0.0199384800486266,0.085488079932332,-0.0427591316401958,-0.0041405307129025,0.0451632887125015,standing
1783088884077200000,4.175199951171875,0.0403251422561705,-0.0334641704455018,0.0471644867569208,-0.0285152178257703,-0.0128616765141487,0.0470818094909191,standing
1783088884087245000,4.1852451171875,0.0361669265981763,-0.076683426707983,0.0281184255033731,-0.0167874544858932,-0.0167496241629123,0.0432833433151245,standing
1783088884097289000,4.1952890625,-0.0002641308289021,-0.0885766935974359,0.0373036024779081,-0.0128469346091151,-0.0143259614706039,0.0358743034303188,standing
1783088884107332900,4.205332763671875,-0.0152264299001544,-0.1015212231054902,0.0878589007169008,-0.0142701277509331,-0.0084616802632808,0.0260168761014938,standing
1783088884117377000,4.215376953125,-0.0114533411022275,-0.1075266010001301,0.1091156237572431,-0.0153922233730554,-0.0041593643836677,0.0150309037417173,standing
1783088884127421000,4.2254208984375,-0.0068787266630679,-0.0951028804957866,0.1004524248301982,-0.0192402265965938,-0.0031505594961345,0.007178041152656,standing
1783088884137465000,4.235465087890625,0.0137306383844465,-0.1173145661734044,0.0543172811210155,-0.017288502305746,-0.0096394261345267,0.0018857409013435,standing
1783088884147509000,4.245509033203125,0.0416305988315492,-0.1135188271522521,-0.0147094933539628,-0.0113163627684116,-0.0153239434584975,-0.0005007176660001,standing
1783088884157554000,4.255553955078125,0.0125322223801165,-0.0949006359219551,-0.0446311688870191,-0.001318217604421,-0.0178153645247221,-0.0047196997329592,standing
1783088884167598000,4.26559814453125,-0.0045943420529365,-0.0765320355385541,-0.0027478374034166,0.0033545650076121,-0.019302474334836,-0.008755188435316,standing
1783088884177642000,4.27564208984375,0.0089284257344901,-0.0796145117238164,0.03845627964437,-0.0001738041173666,-0.0335195884108543,-0.0073279659263789,standing
1783088884187686000,4.285685791015625,0.0059643882971256,-0.096441143362224,0.0212953014850616,0.0005556356627494,-0.0413450226187706,-0.0090014971792697,standing
1783088884197730000,4.29572998046875,0.0206678903017193,-0.0651242140784859,0.0325993703097105,0.0102354800328612,-0.041127860546112,-0.011746285483241,standing
1783088884207774000,4.30577392578125,0.0322737185519188,-0.0459289536125957,0.0611661241024732,0.0188457462936639,-0.0345216244459152,-0.0128557570278644,standing
1783088884217818000,4.315818115234375,0.0413956940971314,-0.0371484119161963,0.0460638320386409,0.0229759905487298,-0.0263371542096138,-0.0134756797924637,standing
1783088884227862000,4.325862060546875,0.0350357306111603,-0.0376145681232213,0.050077159333229,0.0198526363819837,-0.0145524023100733,-0.0130035011097788,standing
1783088884237907000,4.335906982421875,0.0049890404589474,-0.0333504809379577,0.0559451745837926,0.0149463461712002,-0.0024631354026496,-0.0091034369543194,standing
1783088884248579000,4.3465791015625,-0.0200840990643948,-0.0864241917386651,0.0621697481870651,0.008394437842071,0.0101373447105288,-0.0088025005534291,standing
1783088884258623200,4.356623291015625,-0.0210357737660408,-0.0864697844460606,0.0925870982825756,0.0018043385352939,0.0104359798133373,-0.005375902634114,standing
1783088884268668000,4.36666796875,0.0133958534721285,-0.0793671128340065,0.0962479588776826,-0.0040128040127456,0.0050071263685822,-0.0012759659439325,standing
1783088884278712000,4.376712158203125,0.0627688831239938,-0.0760834149882197,0.0523351673930883,-0.0049771345220506,-0.0048433733172714,0.0021709632128477,standing
1783088884288756200,4.386756103515625,0.0712897509709,-0.0859291016981005,0.0066992053776979,-0.0014516420196741,-0.0112653207033872,0.0079494901001453,standing
1783088884298799900,4.3967998046875,0.0411115433935075,-0.0718061760604381,0.026100655940175,0.0107282726094126,-0.0122684938833117,0.0118225887417793,standing
1783088884308844000,4.406843994140625,0.0120309217944741,-0.0886550195306539,0.0467044680297374,0.0203803665935993,-0.0152357881888747,0.0144995972514152,standing
1783088884318888000,4.416887939453125,-0.0242204682167619,-0.0645658495433628,0.0481032289117574,0.0321081839501857,-0.0167538858950138,0.0141952326521277,standing
1783088884328932000,4.42693212890625,-0.0490578262228518,-0.0530209577001631,0.0759726480901241,0.0357580445706844,-0.0169980973005294,0.0143198687583208,standing
1783088884338977000,4.43697705078125,-0.0475966676291078,-0.0841663298092782,0.0846516291081905,0.031662318855524,-0.0241727121174335,0.0167172849178314,standing
1783088884349021000,4.44702099609375,-0.0629839141141623,-0.0876893893688917,0.066940615850687,0.0205718465149402,-0.0297344587743282,0.0264396853744983,standing
1783088884359065000,4.457065185546875,-0.0616083149120211,-0.0891308203488588,0.0563549244284629,0.0150829143822193,-0.0393906831741333,0.0302050970494747,standing
1783088884369109000,4.46710888671875,-0.0038406741414219,-0.0680647975750267,0.050604982599616,0.0154871828854084,-0.0422330759465694,0.0302945785224437,standing
1783088884379153000,4.47715283203125,0.0533860646855086,-0.0658053282104432,0.054713586962223,0.0166201423853635,-0.0432570576667785,0.0314901359379291,standing
1783088884389197000,4.487197021484375,0.0810384070470929,-0.0499181693792343,0.0521276621222496,0.0213459227234125,-0.0420743450522422,0.0258748605847358,standing
1783088884399241000,4.497240966796875,0.0620107582330703,-0.035250469340384,0.0383756156235933,0.0217958427965641,-0.0366273932158947,0.0173435285687446,standing
1783088884409286100,4.5072861328125,0.073330024626851,-0.0009410802423954,0.0814572169810533,0.0247471593320369,-0.0297798737883567,0.0147661212831735,standing
1783088884419330000,4.517330078125,0.0800190739367157,0.0303527604267001,0.1365203480333089,0.0204294230788946,-0.0306654404848814,0.0132197169587016,standing
1783088884429374000,4.5273740234375,0.018764760094136,0.0421542573794722,0.1444143161535263,0.0170626547187566,-0.0257364604622125,0.0098641337826848,standing
1783088884439418000,4.537418212890625,-0.0232744926035404,0.0183133630648255,0.1553746861070394,0.0180137753486633,-0.0172741916030645,0.0031013702973723,standing
1783088884449462000,4.5474619140625,-0.0189899471521377,-0.0280631881847977,0.1662736812621355,0.0036175253335386,-0.0148200877010822,-0.0041469549760222,standing
1783088884459506000,4.557505859375,0.0138986884277313,-0.0446153867959976,0.1117500639140605,-0.0118765830993652,-0.0149868726730346,-0.0135386222973465,standing
1783088884469550000,4.567550048828125,0.0576489097617566,-0.0645101738333702,0.0706114133179187,-0.0219952631741762,-0.0192165058106184,-0.0216753799468278,standing
1783088884479595000,4.577594970703125,0.0989602135110646,-0.0484068880334496,0.0320814839154481,-0.0205425098538398,-0.0175715219229459,-0.0237349681556224,standing
1783088884489639200,4.58763916015625,0.1091372510671615,0.0147742291532456,0.0198375038921833,-0.0099854730069637,-0.0170298349112272,-0.0196555368602275,standing
1783088884499683000,4.59768310546875,0.0970663625884801,0.0387821505978703,0.0283072260737419,0.0050356583669781,-0.0152848102152347,-0.0080040115863084,standing
1783088884509727000,4.60772705078125,0.0587936958827078,0.0265431390106678,0.0561006574064493,0.013305839151144,-0.0146690867841243,0.0001284836325794,standing
1783088884519771100,4.617771240234375,0.0350913332559168,-0.024434330163151,0.0916074395954608,0.0162804834544658,-0.0145429298281669,0.0052206460386514,standing
1783088884529815000,4.62781494140625,0.0049284693781286,-0.0435476114340126,0.1231914953827857,0.0047005265951156,-0.0111082512885332,0.0072241425514221,standing
1783088884539859000,4.63785888671875,0.0248569394893944,-0.0435565253928303,0.1527004984617233,-0.010043691843748,-0.0032113133929669,0.0080238599330186,standing
1783088884549904100,4.647904052734375,0.0140958915002644,-0.0302706351011991,0.163119016623497,-0.0264783259481191,0.0117926700040698,0.0099099101498723,standing
1783088884559948000,4.657947998046875,-0.010252294749394,-0.027164631909877,0.1483884804815053,-0.0320051833987236,0.0245763193815946,0.0155026465654373,standing
1783088884569992200,4.6679921875,0.0340024420406669,-0.0129147188916802,0.1015238534539938,-0.030890118330717,0.0272892825305461,0.0202667750418186,standing
1783088884580035800,4.678035888671875,0.1144817539002746,0.0253194424346089,0.0535679240584373,-0.0222693588584661,0.0286297816783189,0.0308381617069244,standing
1783088884590080000,4.688080078125,0.1322054074436426,0.0342661344781518,-0.0157142864823341,-0.0130537562072277,0.0187912657856941,0.0367024429142475,standing
1783088884600124200,4.698124267578125,0.0962717781446874,0.0147245447926223,-0.0289998845130205,-0.0048511670902371,0.0109204649925231,0.0455279275774955,standing
1783088884610168000,4.70816796875,0.0683662647396326,0.0007177928805351,0.0133615858763456,-0.0055007115006446,0.0028305801097303,0.0482219792902469,standing
1783088884620213000,4.718212890625,0.0377250427603721,-0.0110242289699614,0.0284106864482164,-0.0046408833004534,-0.0023839101195335,0.0479254052042961,standing
1783088884630257200,4.728257080078125,0.0023286621432751,-0.0400030706949532,0.0645727176755666,-0.0026038312353193,0.0036654602736234,0.042681373655796,standing
1783088884640301000,4.738301025390625,-0.0308150441762059,-0.0670155807830393,0.0809042592734098,-0.0054136253893375,0.0094544487074017,0.0343385562300682,standing
1783088884650345000,4.748344970703125,-0.0471438092950731,-0.0740026631914079,0.1041144544690847,-0.0118920309469103,0.0161032956093549,0.0263067279011011,standing
1783088884660388900,4.758388916015625,-0.0031285803493112,-0.0574237227037549,0.1114122102618217,-0.017956368625164,0.0177542697638273,0.009981470182538,standing
1783088884670433000,4.76843310546875,0.0246470230657607,-0.0331949981153011,0.0789478645086288,-0.0233122520148754,0.0109935700893402,-0.0018839770928025,standing
1783088884680477200,4.778477294921875,0.0317811857946217,-0.0049279579214751,0.059840428456664,-0.0229685995727777,0.0043894439004361,-0.0075801671482622,standing
1783088884690521900,4.78852197265625,0.0103121351778507,-0.0117711018145084,0.034884850898385,-0.0194769296795129,0.0001483601517975,-0.0063591082580387,standing
1783088884700566000,4.79856591796875,0.0077557286933064,-0.0403932390563189,0.0112736736863851,-0.0136191984638571,-0.0039175823330879,-0.0012321646790951,standing
1783088884710610000,4.80860986328125,0.0326237010333687,-0.055286126153171,0.0105634795904159,-0.0090497462078928,-0.0094327228143811,0.0039103990420699,standing
1783088884720654000,4.818654052734375,0.0386311978198587,-0.0471940051123499,0.059144847407937,-0.0052189496345818,-0.0079816989600658,0.007172742858529,standing
1783088884730698000,4.828697998046875,0.0143426328029483,-0.0443989675663411,0.1057493621945381,-0.0017808086704462,-0.0001093950122594,0.0110817309468984,standing
1783088884740742000,4.838741943359375,0.0221099788688123,-0.0410467345289886,0.153327690449357,-0.0051747942343354,0.0066631189547479,0.0129544325172901,standing
1783088884750786000,4.8487861328125,0.0404741953380405,-0.0404268490649759,0.1493120250672102,-0.0113855516538023,0.0175434648990631,0.012494770810008,standing
1783088884760831200,4.858831298828125,0.0502707091439515,-0.0165555596120655,0.1683522411018609,-0.0214690770953893,0.0328019298613071,0.0100286081433296,standing
1783088884770875000,4.868875,0.0878682530671358,0.0130731243237853,0.1641939523786306,-0.0290787946432828,0.0404145717620849,0.0082807764410972,standing
1783088884780919000,4.8789189453125,0.0555054679922759,0.0173942023932933,0.1368330672442912,-0.0286751128733158,0.0406045168638229,0.0078113730996847,standing
1783088884790963000,4.888962890625,0.0152365129027515,0.0075748191684484,0.0757762487351894,-0.0241482723504304,0.0331990644335746,0.0142024271190166,standing
1783088884801007000,4.899007080078125,0.0041438948716968,-0.0167696407541632,0.0121972182720899,-0.0159654431045055,0.025606233626604,0.0218180697411298,standing
1783088884811051000,4.909051025390625,0.0075143211528658,-0.0221763221032917,-0.0053770168632268,-0.0089008752256631,0.0207257252186536,0.0242300946265459,standing
1783088884821095000,4.919094970703125,0.007964914464578,-0.0083313366241753,0.001458382114768,-0.0084782857447862,0.0177824404090642,0.0248879622668027,standing
1783088884831139000,4.92913916015625,0.0580278260767459,0.0179391229249537,0.0401011242419481,-0.0106700668111443,0.0131211094558238,0.023969704285264,standing
1783088884841184300,4.939184326171875,0.0505439000621438,0.0724454968772828,0.0834545282781124,-0.0138220777735114,0.0138981286436319,0.0219047833234071,standing
1783088884851228000,4.949227783203125,8.92857186496e-05,0.0905092690952122,0.1067161614000797,-0.0184069760143756,0.0167053677141666,0.0229953471571207,standing
1783088884861272000,4.95927197265625,-0.0333852599903941,0.0633358693569898,0.1213724632620811,-0.0272579379379749,0.0188366547226905,0.0251487158238887,standing
1783088884871316000,4.96931591796875,-0.0521010663762688,0.0234125858999788,0.0965519102603197,-0.0376059189438819,0.0204707719385623,0.0231582708656787,standing
1783088884881360100,4.979360107421875,-0.0431551780503243,0.0224563080884516,0.0677741440653801,-0.0390356071293354,0.0235349293798208,0.0203549601137638,standing
1783088884891404000,4.989404052734375,0.0046602468959987,0.0207331375576555,0.0638981794148683,-0.031653594225645,0.0261309780180454,0.0185072571039199,standing
1783088884901448000,4.999447998046875,0.072666665347293,0.0328648893781006,0.0509311458140611,-0.0195662509649992,0.0276534669101238,0.0218103118240833,standing
1783088884911493000,5.0094931640625,0.0864212691292166,0.0610756693400442,0.0501806197077035,-0.0185406673699617,0.0226360727101564,0.0232438929378986,standing
1783088884921537000,5.019537109375,0.1104805554348975,0.0672179714873433,0.0287906256765127,-0.0234939325600862,0.0121656283736228,0.0244447756558656,standing
1783088884931581000,5.029580810546875,0.1152672782547771,0.0694933690734207,0.0295265387356281,-0.0260881185531616,0.0043817404657602,0.0227217115461826,standing
1783088884941625000,5.039625,0.0328925811026245,0.0593463613294064,0.031557752302289,-0.0239727701991796,-0.0004131705500185,0.0226637236773967,standing
1783088884951669000,5.0496689453125,-0.0486663426872342,0.0326122297912836,0.0475789127767086,-0.0150149604305624,-0.0004778853617608,0.0174465905874967,standing
1783088884961713200,5.059713134765625,-0.067295859029144,0.0147204531393945,0.0692220047861337,-0.0060316929593682,-0.006166374310851,0.0079901982098817,standing
1783088884971757000,5.069757080078125,-0.0957101256739348,0.0233382054895162,0.053275663113594,0.0012147685047239,-0.0040419707074761,-0.0028456717263907,standing
1783088884981802000,5.079802001953125,-0.1153692042592912,-0.0182462891779839,0.0613391425818204,-0.0004172693006694,-0.0036858548410236,-0.0117530394345521,standing
1783088884991846100,5.08984619140625,-0.0726535866700112,-0.0555972379289567,0.0870750568628311,-0.0125998994335532,-0.0086587760597467,-0.0199704896658658,standing
1783088885001890000,5.09989013671875,0.0160234985619783,-0.0372873819954693,0.0902799903839826,-0.0226962100714445,-0.011950708925724,-0.0283405389636755,standing
1783088885011934000,5.109933837890625,0.0386029215734452,0.003028700171411,0.0900707315474748,-0.0266866907477378,-0.0092894118279218,-0.0314590968191623,standing
1783088885021978000,5.11997802734375,0.0456373502548783,0.0087733813032507,0.0865583395123481,-0.0276014320552349,-0.0095678083598613,-0.0354554057121276,standing
1783088885032022000,5.13002197265625,0.0365389747809618,0.0157470197081565,0.0555213962137699,-0.024043183773756,-0.0120820980519056,-0.0381952635943889,standing
1783088885042066200,5.140066162109375,0.0185807818293571,0.0177177352592349,0.0517564907222986,-0.017042052000761,-0.0148381618782877,-0.0406080223619937,standing
1783088885052111000,5.150111083984375,0.0095550332002341,-0.0119204471573233,0.0566536151140928,-0.0048953751102089,-0.0171468555927276,-0.0420056506991386,standing
1783088885062155000,5.160155029296875,-0.005609291249141,-0.0420560577020049,0.0606289484858512,0.0033085455652326,-0.0192486196756362,-0.0435883067548275,standing
1783088885072199200,5.17019921875,0.0097089085876941,-0.037516368445754,0.0694932229429483,0.0066553400829434,-0.0180129148066043,-0.0496291555464267,standing
1783088885082243000,5.1802431640625,0.0307971431933343,-0.0144990654736757,0.082748425835371,0.0039389161393046,-0.0102471364662051,-0.0543605275452137,standing
1783088885092287000,5.190286865234375,0.0211439103156328,-0.0036268121950328,0.1025549500674009,-0.0071574114263057,-0.0048699472099542,-0.0516108125448226,standing
1783088885102331000,5.200330810546875,0.0009236907161772,-0.0134717682525515,0.1045703815430402,-0.0183589328080415,-0.0014054412022233,-0.0479124821722507,standing
1783088885112375000,5.210375,0.0060627341050654,-0.005972498538345,0.0867716900020837,-0.0190329775214195,0.0038361921906471,-0.0440804585814476,standing
1783088885122420000,5.220419921875,-0.0045401276476681,0.0070572250351309,0.0720721335202455,-0.0115141300484538,0.0080922851338982,-0.0418258607387542,standing
1783088885132463900,5.2304638671875,-0.0001810556553304,0.0379210037238895,0.0786462512135505,-0.0048026973381638,0.0114422757178545,-0.0400013290345668,standing
1783088885142508000,5.240508056640625,0.016316928550601,0.008105272783339,0.0929348888069391,-0.0077763809822499,0.0174758154898881,-0.0416834577918052,standing
1783088885152552200,5.25055224609375,0.0457130458395928,-0.0183460962906479,0.1167155773669481,-0.0228557325899601,0.0186683796346187,-0.046007364988327,standing
1783088885162596000,5.26059619140625,0.0595000175211578,-0.0147216221831738,0.1120563533842563,-0.0371467880904674,0.0088892709463834,-0.0413864664733409,standing
1783088885172640300,5.27064013671875,0.0804268510200083,0.0083006492249667,0.0280313317418098,-0.0362381190061569,0.0039677498862147,-0.0324651412665843,standing
1783088885182684400,5.280684326171875,0.0451510280426591,-0.0136857032641768,-0.0142132342696189,-0.0150202345103025,0.0084642153233289,-0.0249308981001377,standing
1783088885192729600,5.2907294921875,0.0563344661623239,-0.0142030051365494,0.0091734865367412,0.0077183675020933,0.0091569032520055,-0.0208525341004133,standing
1783088885202773200,5.300773193359375,0.0711786918118596,0.0164339790590107,0.0365624287217855,0.020015301182866,0.0065812645480036,-0.0155890276655554,standing
1783088885212817400,5.3108173828125,0.0909255217459052,-0.0060268590740859,0.0478454547584056,0.0165199022740125,0.0076617086306214,-0.0146350832656025,standing
1783088885222861300,5.320861328125,0.0903234641995281,-0.0042117724761366,0.0921007760703563,0.0032238038256764,0.0102629298344254,-0.0159173235297203,standing
1783088885232905500,5.330905517578125,0.1055498210344463,0.0256086346395313,0.1089139637053012,-0.0092824008315801,0.0078564975410699,-0.018404982984066,standing
1783088885242949000,5.34094921875,0.0593893236882984,0.0329911461062729,0.0795849933683872,-0.0196466241031885,0.0077036321163177,-0.0266948714852333,standing
1783088885252993300,5.3509931640625,-0.0149270816273987,0.0204863231897354,0.0637561405956745,-0.0212999153882265,0.00187503779307,-0.0315468832850456,standing
1783088885263038500,5.36103857421875,-0.0753626264329999,0.0030066344700753,0.0484977811872959,-0.018387533724308,0.0001280787400901,-0.0323395282030105,standing
1783088885273082400,5.371082275390625,-0.1099541934732347,-0.0216518598377704,0.0623883593738079,-0.0170189347118139,-0.0097391996532678,-0.0373159125447273,standing
1783088885283126300,5.381126220703125,-0.0782293409757316,-0.0428441393397748,0.0793289727807045,-0.0147959431633353,-0.0201735943555831,-0.0408063307404518,standing
1783088885293170400,5.39117041015625,-0.0454291873969137,-0.0469901531033217,0.0604489157438278,-0.0131748765707015,-0.0279484260827302,-0.0478330813348293,standing
1783088885303214300,5.40121435546875,-0.0022734248246997,-0.0343090968370437,0.0415723658382892,-0.0080041904002428,-0.0265843756496906,-0.0531491823494434,standing
1783088885313258500,5.411258544921875,0.0322937384266406,-0.0378099445648491,0.0525888498932123,-0.0030653576832264,-0.0240109637379646,-0.0541137792170047,standing
1783088885323302100,5.42130224609375,0.0767369104608893,-0.0674587945058941,0.0499935727030038,0.0007186750881373,-0.0106931030750274,-0.0476740002632141,standing
1783088885333347300,5.431347412109375,0.0949571884147822,-0.0609423983491957,0.0720867465674877,-0.003492847783491,0.0021198983304202,-0.0385004766285419,standing
1783088885343391500,5.4413916015625,0.1331632196251302,-0.0437697297520935,0.1179664542108774,-0.0108155822381377,0.0080275703221559,-0.0303148794919252,standing
1783088885353435400,5.451435302734375,0.1795685585778206,-0.0279481835030019,0.1146329258739948,-0.0221862141042947,0.005772671662271,-0.0196587741374969,standing
1783088885363479300,5.461479248046875,0.1840917350906878,0.0147311206638813,0.1054606083810329,-0.0257476605474948,0.0008783712983131,-0.0083822477608919,standing
1783088885373523500,5.4715234375,0.1234219431377947,0.0243523509681224,0.0627244594603776,-0.0215558446943759,-0.0043195863254368,0.0046770949847996,standing
1783088885383567400,5.4815673828125,0.0660321227036416,0.0062801031827926,0.01691547896564,-0.0093265548348426,-0.0087150633335113,0.0126039991155266,standing
1783088885393611500,5.491611572265625,0.0219486508272588,-0.0148528473474085,-0.0290185892134904,0.0072809178382158,-0.0131164714694023,0.0162051264196634,standing
1783088885403656400,5.501656494140625,-0.0112885789945721,-0.0366588748335838,-0.015593290451169,0.0239712670445442,-0.0128405056893825,0.0188578646630048,standing
1783088885413700400,5.511700439453125,-0.0621718670789152,-0.0429625050224363,0.0388578461825847,0.0268461480736732,-0.01205300912261,0.0174170956015586,standing
1783088885423744500,5.52174462890625,-0.0552623068861663,-0.0490200514957308,0.065864511051774,0.0178408846259117,-0.0128078833222389,0.0123774139210581,standing
1783088885433788400,5.531788330078125,-0.0458515044622123,-0.02553191614151,0.113476157054305,0.0024113287217915,-0.0119306370615959,0.007142970804125,standing
1783088885443832300,5.541832275390625,-0.0228748988267034,-0.0217491827324032,0.1094324346214532,-0.006374068558216,-0.0093917520716786,-0.0001696867402642,standing
1783088885453876200,5.551876220703125,-0.0016277473323047,-0.0150130063451826,0.0920773951947689,-0.0045849569141864,-0.0007207659073174,-0.0019441510085016,standing
1783088885463920400,5.56192041015625,0.0492324521373957,0.0008491641752421,0.113562081772089,-0.0021872071083635,-0.0013413168489933,-0.0056312992237508,standing
1783088885473965300,5.57196533203125,0.08164528689906,-0.0077374623842537,0.0891682297497987,-0.0018069077050313,0.0041013853624463,-0.0070004309527575,standing
1783088885484009200,5.58200927734375,0.0896778597723692,-0.0020819208405911,0.0521171407282352,0.003054266795516,0.0079413596540689,-0.0082936659455299,standing
1783088885494053400,5.592053466796875,0.0587445229787379,-0.0261402572982013,0.0458814612090587,0.0070822979323565,0.0136895272880792,-0.0146599523723125,standing
1783088885504097500,5.60209765625,0.0192167416453361,-0.0729420482225716,0.0461842435479164,0.0125699015334248,0.0141025073826313,-0.0254197251051664,standing
1783088885514141400,5.612141357421875,-0.0327126214258372,-0.0910620806723833,0.0340209275454282,0.0179833080619573,0.018746793270111,-0.0336938984692096,standing
1783088885524185300,5.622185302734375,-0.0923513167653232,-0.125427291610837,0.0670399845719337,0.0187902469187974,0.0252634510397911,-0.0416716895997524,standing
1783088885534229200,5.632229248046875,-0.1198907733369618,-0.1185065524369478,0.1065080716073512,0.0125840157270431,0.0309719368815422,-0.0507810302078723,standing
1783088885544274400,5.6422744140625,-0.1005202293694019,-0.1206743979953229,0.141656541877985,0.0012031570076942,0.0273320078849792,-0.0576398782432079,standing
1783088885554318300,5.652318359375,-0.0238364373352378,-0.0908254954375326,0.1423188051789999,-0.0105930492281913,0.0205678455531597,-0.0622849613428115,standing
1783088885564362200,5.6623623046875,0.0126016343545168,-0.0502377567224204,0.1156587617903947,-0.0126915657892823,0.0080609545111656,-0.0670460313558578,standing
1783088885574406400,5.672406494140625,0.0433339686833322,-0.0688286215543746,0.0436959338635206,-0.0065870680846273,-0.0064250440336763,-0.0683965161442756,standing
1783088885584450300,5.6824501953125,0.0672352879483252,-0.0875898745171725,-0.0367325245916843,0.0119063481688499,-0.0119394622743129,-0.0635349825024604,standing
1783088885594494500,5.692494384765625,0.0536764989994466,-0.085847122503072,-0.0711637865036726,0.0383246392011642,-0.0035164155997335,-0.0575553923845291,standing
1783088885604538400,5.702538330078125,0.0151795950837433,-0.0498778373688459,-0.0098480247974395,0.0623409189283847,0.0161681119352579,-0.0535121746361255,standing
1783088885614583300,5.712583251953125,0.0145164549998939,-0.0326974238567054,0.0906020619451999,0.0604918859899044,0.0276239644736051,-0.0450395941734313,standing
1783088885624627500,5.72262744140625,0.0391956998348236,-0.0269192788466811,0.1819827070474624,0.0333110801875591,0.0212274156510829,-0.0380893126130104,standing
1783088885634671400,5.73267138671875,0.0372341905035078,-0.0475176841087639,0.1786187835723161,-0.0001664536539465,0.0042894436046481,-0.0354186929762363,standing
1783088885644715300,5.74271533203125,0.0113398707903921,-0.0514271126374602,0.109934538924694,-0.0089134462177753,-0.0114296171814203,-0.0291897226125001,standing
1783088885654759400,5.752759521484375,-0.0320031579822301,-0.0752513480782508,0.0241857622295618,0.0083752628415822,-0.0112591758370399,-0.0222127735614776,standing
1783088885664803300,5.76280322265625,-0.0532006251160055,-0.1181885725289583,-0.0204576816171407,0.0325822830200195,-0.0021937089040875,-0.0176564641296863,standing
1783088885674847500,5.772847412109375,-0.0780423670362681,-0.1061921375259757,-0.0222194305926561,0.041536096483469,0.0108129037544131,-0.0149917053058743,standing
1783088885684892400,5.782892333984375,-0.0187163909077644,-0.0990069021970033,0.0134176999777555,0.0348490104079246,0.0223167091608047,-0.012433310970664,standing
1783088885694936300,5.792936279296875,0.0130155489176511,-0.0835883837908506,0.0776882198363542,0.0190732404589653,0.0256802812218666,-0.003939158283174,standing
1783088885704980500,5.80298046875,-0.0372047452133148,-0.0956610989004373,0.1025467667609453,0.0051887910813093,0.0274007525295019,0.0035870573483407,standing
1783088885715024400,5.8130244140625,-0.0328050489496439,-0.0706809714227914,0.0861608646273612,0.0041174013167619,0.0296119768172502,0.0087991300970315,standing
1783088885725068300,5.823068359375,0.0454821596931666,-0.0404383933722972,0.06501403170228,0.0139833465218544,0.0181927233934402,0.0154943894594907,standing
1783088885735112400,5.833112548828125,0.1128569291774183,0.0195247846812009,0.0256464824318885,0.0260927397757768,0.005753363482654,0.0240394100546836,standing
1783088885745156400,5.84315625,0.1432849467974156,0.0683534052580595,0.0002004910081624,0.0297741889953613,-0.0030553839169442,0.0312469191849231,standing
1783088885755201300,5.853201171875,0.124493298696354,0.0729777040578424,0.0601893880248069,0.0205436721444129,-0.0156657174229621,0.042657233774662,standing
1783088885765245400,5.863245361328125,0.0828588274072855,0.0091916067153215,0.0812578950166702,0.0074224369600415,-0.0273960083723068,0.0482072904706001,standing
1783088885775289300,5.873289306640625,0.0659654141429811,-0.021853081498295,0.0981628525882959,0.0022007774095982,-0.0371263995766639,0.054034549742937,standing
1783088885785333500,5.88333349609375,0.0256652601975947,-0.0262564310237765,0.1121481233209371,0.006395629607141,-0.0415139384567737,0.0531886294484138,standing
1783088885795377200,5.893377197265625,-0.034448505307734,-0.0403112598612904,0.1000473511606454,0.0152839301154017,-0.0413142032921314,0.0498066842555999,standing
1783088885805421300,5.90342138671875,-0.0152004917412996,-0.0317049056880176,0.1075514431804418,0.0193233042955398,-0.0358036085963249,0.0398497581481933,standing
1783088885815465500,5.913465576171875,-0.0271313141621649,-0.0502229975447058,0.1117839661836624,0.0117324972525238,-0.0266998596489429,0.0318789184093475,standing
1783088885825509400,5.92350927734375,-0.0464450133759528,-0.0726379507094621,0.1376741942435503,-0.0048377970233559,-0.0122195314615964,0.024791644886136,standing
1783088885835554300,5.93355419921875,-0.0228610894970595,-0.0781060068570077,0.142881699758768,-0.0260749086737632,-0.008300956338644,0.0152817629277706,standing
1783088885845598500,5.943598388671875,0.0176094525791704,-0.0725042413271963,0.143495447742939,-0.0408523082733154,-0.0078041129745543,0.0101913083344697,standing
1783088885855642400,5.953642333984375,0.0629619214780628,-0.0492884931735694,0.0851087252259254,-0.0446933880448341,-0.014982396736741,0.0088488087058067,standing
1783088885865686500,5.9636865234375,0.0451060198571533,-0.0228514448858797,0.0124859720855951,-0.0346740968525409,-0.0213625058531761,0.013027861714363,standing
1783088885875730200,5.973730224609375,0.0019331600196659,-0.0526087236374616,-0.0229874923557043,-0.0137765370309352,-0.0217409413307905,0.0231324266642332,standing
1783088885885774300,5.9837744140625,-0.0204957486052066,-0.070490563417226,-0.0032376667469739,0.0024073324166238,-0.017816737294197,0.0307295713573694,standing
1783088885895818500,5.993818603515625,0.0340473040957003,-0.0870744723409414,0.0481307014405727,0.0049138995818793,-0.0158412046730518,0.0491629093885421,standing
1783088885905863200,6.00386328125,0.0489553887616842,-0.072345397503674,0.0950181248217821,0.0015111255925148,-0.0110476296395063,0.0604449920356273,standing
1783088885915907300,6.0139072265625,0.0587301291272044,-0.0243728092342615,0.1385503925561904,-0.0107548609375953,-0.0078105586580932,0.074622593820095,standing
1783088885925951500,6.023951416015625,0.0931353067498654,0.0161003631904721,0.1612175669163465,-0.024117911234498,-0.011965655721724,0.0918024331331253,standing
1783088885935995400,6.033995361328125,0.1276143533263355,0.022658844923228,0.1208072305947542,-0.0308818090707063,-0.0182113014161586,0.108797401189804,standing
1783088885946039600,6.04403955078125,0.1404383982598781,0.0313387027241289,0.0512391888499259,-0.0184926223009824,-0.019558347761631,0.125713363289833,standing
1783088885956083200,6.054083251953125,0.0991148195508867,0.0287292508780956,-0.014722352835536,0.0039658136665821,-0.0094125010073184,0.1412097662687301,standing
1783088885966127400,6.06412744140625,0.0642046150155365,0.0437095239974558,0.0309089330047368,0.0180612336844205,-0.0007076170295476,0.1524963229894638,standing
1783088885976172500,6.074172607421875,0.0501470096990466,0.0537095244862139,0.0775403357982635,0.0122238490730524,-0.0002876361832022,0.156977891921997,standing
1783088885986216200,6.08421630859375,0.0372363093953579,0.0541416322931647,0.0991150387465953,-0.0052701327949762,-0.0039944942109286,0.1556668579578399,standing
1783088885996260400,6.09426025390625,-0.0333140944503247,0.0543012067690491,0.1105178917706012,-0.0242563411593437,-0.0024330834858119,0.1500497162342071,standing
1783088886006304300,6.10430419921875,-0.0989447236809879,0.032780133704096,0.1148673191517591,-0.0327238626778125,-0.0001862649805843,0.1346169561147689,standing
1783088886016348400,6.114348388671875,-0.0813275992520153,-0.0482540355592966,0.0999906525373458,-0.0358187220990657,0.0025408121291548,0.113660804927349,standing
1783088886026392600,6.124392578125,-0.0951928968667984,-0.0768487002722918,0.0652408261954784,-0.0312858074903488,0.0049690776504576,0.0917567759752273,standing
1783088886036436200,6.134436279296875,-0.087330785189569,-0.0848652718588709,0.005811316627264,-0.0214177332818508,0.0139473928138613,0.0755743458867073,standing
1783088886046481400,6.1444814453125,-0.030084830205515,-0.0689360274516046,0.0340694428622722,-0.0094845881685614,0.0237585939466953,0.0631457641720771,standing
1783088886056525600,6.154525634765625,0.0169702048275619,-0.0420950745381414,0.0748755005031824,-0.0117187136784195,0.0246408991515636,0.0507258512079715,standing
1783088886066569200,6.1645693359375,0.0716234399046748,-0.0445971204869449,0.0983440543740987,-0.0240277890115976,0.0216091014444828,0.0394962541759014,standing
1783088886076613400,6.17461328125,0.0949835649650543,-0.0093428517542779,0.1064472813308238,-0.0348399579524993,0.0147738326340913,0.0316700227558612,standing
1783088886086657300,6.1846572265625,0.0908292217645794,0.0035128304265439,0.0462730908751487,-0.0385723784565925,0.006696255877614,0.0228945445269346,standing
1783088886096701400,6.194701416015625,0.0580413431454449,-0.0001636661291122,0.0091080200850963,-0.0285176131874322,-0.0014487556181848,0.0147236995398998,standing
1783088886106745600,6.20474560546875,-0.0057053720347583,-4.03320103883e-05,0.0052045829057693,-0.0065246438607573,-0.002641680650413,0.0092631895095109,standing
1783088886116790300,6.214790283203125,-0.0675802289284765,-0.0200603528626263,0.0185264212936162,0.0091824131086468,-0.0035910978913307,0.0037152920849621,standing
1783088886126834400,6.22483447265625,-0.0955086117524653,-0.0742700819559395,0.100611414784193,0.0061184996739029,-0.0065453806892037,-0.0049038254655897,standing
1783088886136878300,6.23487841796875,-0.0536732841290533,-0.0997143198139965,0.1126046349167823,-0.0095581980422139,-0.0111776832491159,-0.0159189254045486,standing
1783088886146922200,6.244922119140625,-0.0032611937530338,-0.0946319019831717,0.1122790562242269,-0.0261857490986585,-0.0244473405182361,-0.029392797499895,standing
1783088886156966400,6.25496630859375,0.0112196054115891,-0.0471153869181871,0.039247137761116,-0.0274954903870821,-0.0333406999707222,-0.0443427190184593,standing
1783088886167010000,6.265010009765625,-0.0092713208880275,-0.0125501233629882,-0.0057189621686935,-0.0103104328736662,-0.0356189385056495,-0.0503577664494514,standing
1783088886177054000,6.275053955078125,-0.0148902567483484,-0.0030444822624325,-0.0126788643091917,0.0078576514497399,-0.0315546914935112,-0.0586734898388385,standing
1783088886187099000,6.285098876953125,-0.0076764529120177,-0.0081501348383724,0.0332657252639532,0.0127045512199401,-0.024002019315958,-0.0593938343226909,standing
1783088886197143000,6.29514306640625,0.0214224349960684,-0.0284143397100269,0.103683077314496,0.002000241074711,-0.0100190928205847,-0.0590990222990512,standing
1783088886207187000,6.30518701171875,0.0517664275944232,-0.0082004037208855,0.1630260776430368,-0.0215026885271072,-0.0012940447777509,-0.0595096834003925,standing
1783088886217231000,6.315231201171875,0.0890905614037066,-0.0160138539507985,0.1746516335070133,-0.0436306297779083,0.0070038326084613,-0.0588002167642116,standing
1783088886227275000,6.32527490234375,0.0881217163715511,0.029715047045052,0.1318494336128234,-0.0428010486066341,0.0095673985779285,-0.0489747114479541,standing
1783088886237319000,6.33531884765625,0.0763517105355858,0.0967842577114701,0.0874579187005758,-0.0248846337199211,0.0136407036334276,-0.0327419452369213,standing
1783088886247363000,6.345363037109375,0.0373767407793551,0.0669189885407686,0.0602975245743989,-0.0044242623262107,0.0128274988383054,-0.01589778624475,standing
1783088886257408000,6.355407958984375,0.0636309798460453,0.0398347283907234,0.065670449784398,0.0027287218254059,0.0099835097789764,-0.0051005319692194,standing
1783088886267452000,6.365451904296875,0.0861282775320112,0.0427044386081397,0.0856067378759384,-0.0104523804038763,0.0041670496575534,-0.0030739977955818,standing
1783088886277496000,6.37549609375,0.0765589235454797,0.0392874697715044,0.1204483341544866,-0.0324777886271476,-8.81487503647e-05,0.0005351181607693,standing
1783088886287540000,6.3855400390625,0.023147870549187,0.0105525198049843,0.1101058038383722,-0.0443501584231853,0.0008191899396479,0.0021465967874974,standing
1783088886297584000,6.395584228515625,-0.0186870186828076,0.0168942900471389,0.0793254656493663,-0.0455491133034229,0.0043713143095374,-0.0035389857366681,standing
1783088886307628000,6.4056279296875,-0.0458423713076859,0.0074780807957053,0.0797246941000223,-0.0420620255172252,0.0038503259420394,-0.0108491061255335,standing
1783088886317672000,6.415671875,-0.0720056441552937,-0.0038433775551617,0.0573228926777839,-0.0339329913258552,0.0052610021084547,-0.019713170826435,standing
1783088886327717000,6.425717041015625,-0.0763426504462957,-0.0034533553242683,0.0384685546040535,-0.0261186379939317,0.000281233806163,-0.0295351091772317,standing
1783088886337761000,6.435760986328125,-0.0583037934739142,-0.0294198634907603,0.0027314707905054,-0.0216075107455253,-0.0105059007182717,-0.0408679209649562,standing
1783088886347805000,6.445804931640625,0.0032934155222028,-0.0332550577394664,-0.0047720367074012,-0.0169421304017305,-0.0149340340867638,-0.0468951538205146,standing
1783088886357848800,6.455848876953125,0.0215494223766028,-0.0263878023184835,-0.0020277064353227,-0.0159069597721099,-0.0101683055981993,-0.0523479767143726,standing
1783088886367893000,6.46589306640625,0.0776337131701409,-0.0393656495742499,0.065482233735919,-0.0148951727896928,0.002176527865231,-0.0500343814492225,standing
1783088886377937200,6.475937255859375,0.106576606798917,-0.0209283678688108,0.1258843877285718,-0.0196800734847784,0.0112603046000003,-0.0434238836169242,standing
1783088886387981000,6.48598095703125,0.1017909799575805,0.0052523675702512,0.153709967765212,-0.0251270905137062,0.0234698131680488,-0.0393541455268859,standing
1783088886398026000,6.49602587890625,0.0989190777830779,0.0225670749865472,0.1577671342015266,-0.0274443067610263,0.0281830765306949,-0.0330672226846218,standing
1783088886408070100,6.506070068359375,0.0662134706199169,0.0228495451897382,0.1016635541856288,-0.0283984653651714,0.0300799533724784,-0.0302943065762519,standing
1783088886418114000,6.516114013671875,0.0380269483163952,0.0063692427709698,0.0554652821123599,-0.0273422542959451,0.032650701701641,-0.0214813724160194,standing
1783088886428158000,6.526157958984375,-0.0257470932621508,-0.0129423375509679,0.05044833073318,-0.0273903496563434,0.0321801379323005,-0.01246028393507,standing
1783088886438201900,6.536201904296875,-0.0435255457326769,-0.0493340858809649,0.0380208108365535,-0.0332815311849117,0.0253139771521091,-0.0067091872915625,standing
1783088886448246000,6.54624609375,0.0155050276458263,-0.0938967195764183,0.0250952782899141,-0.0366405770182609,0.0112958531826734,0.0009384879376739,standing
1783088886458290200,6.556290283203125,0.0417810401529073,-0.0959907692462205,0.0222287829428911,-0.0316612608730793,0.0066057606600224,0.0095844408497214,standing
1783088886468334800,6.5663349609375,0.0594201572179794,-0.0996815865881741,0.002564297530055,-0.0194373540580272,0.0067571848630905,0.0124997328966856,standing
1783088886478379000,6.57637890625,0.0710023853968828,-0.0694148970097303,0.0459901822805404,-0.0085287792608141,0.0116339651867747,0.0160529240965843,standing
1783088886488423000,6.5864228515625,0.0723997580394148,-0.0380493062786757,0.0965840589642524,-0.0099847288802266,0.013989683240652,0.0169838909059762,standing
1783088886498467000,6.596467041015625,0.0502474013336002,-0.0219642867878079,0.1118985324740409,-0.0203303098678588,0.0110572762787342,0.0159649662673473,standing
1783088886508511000,6.606510986328125,0.0227674929294735,0.0013635434381663,0.0942757820218801,-0.0247502010315656,0.0103961080312728,0.0168253406882286,standing
1783088886518555000,6.616554931640625,0.0264002964738756,-0.0145728613622486,0.0866775819778442,-0.0242620427161455,0.0164808984845876,0.0168173518031835,standing
1783088886528599000,6.62659912109375,0.025209625384584,-0.0348572322390973,0.0936795696943998,-0.0223507434129714,0.0193509701639413,0.0144816534593701,standing
1783088886538644000,6.63664404296875,0.0072428838003426,-0.0554784338548779,0.0673988810122013,-0.0234631467610597,0.029633168131113,0.0073989760130643,standing
1783088886548688000,6.64668798828125,0.0288647138260304,-0.098265143918991,0.0793196204304695,-0.0292789582163095,0.0364785566926002,-0.0056060384958982,standing
1783088886558732000,6.65673193359375,0.0717380792602896,-0.0999460827432572,0.0776256759941577,-0.0434227399528026,0.0325538553297519,-0.0193852335214614,standing
1783088886568776000,6.66677587890625,0.1187535860005766,-0.1090140630789101,0.0735521429449319,-0.0505272038280963,0.0274259578436613,-0.0236248802393674,standing
1783088886578820000,6.676820068359375,0.0782310214761644,-0.0623331220552325,0.0442950688004493,-0.0422498323023319,0.0178510956466197,-0.0300244558602571,standing
1783088886588864000,6.686864013671875,0.019935484373942,-0.0354335708223283,0.0412491252332925,-0.0182624198496341,0.0114832120016217,-0.0357240960001945,standing
1783088886598908000,6.696907958984375,0.0221074946507811,-0.0374430109485983,0.0455506218194961,0.0005626673810184,0.004191743209958,-0.0379249341785907,standing
1783088886608953000,6.706953125,0.0157075644806027,-0.0266315479464828,0.0650689767599105,0.0052153719589114,-0.0068174274638295,-0.0366819128394126,standing
1783088886618997000,6.7169970703125,0.0242062204957008,-0.040435178501904,0.0940934111922979,-0.0006454463582485,-0.0027110995724797,-0.0361199863255023,standing
1783088886629041000,6.727041015625,0.0455365932941436,-0.0545231789566576,0.1184124444127082,-0.0135956034064292,0.0077350600622594,-0.0338914729654789,standing
1783088886639085000,6.7370849609375,0.0508052544120699,-0.0769951230056583,0.1392857210934162,-0.0289561823010444,0.0122504495084285,-0.023582374677062,standing
1783088886649129000,6.74712890625,0.0580354979265481,-0.0963306687250733,0.097599373486638,-0.0371136590838432,0.0131583390757441,-0.0145895732566714,standing
1783088886659173000,6.757173095703125,0.1102598984215408,-0.1231418110221624,0.0286228678941726,-0.0339285209774971,0.0142302606254816,-0.0059191202744841,standing
1783088886669216800,6.767216796875,0.1588116017531603,-0.1183317803919315,-0.0254296248108148,-0.0241357553750276,0.0146316010504961,0.0040262467227876,standing
1783088886679262000,6.777261962890625,0.1549248965129256,-0.067356503175199,-0.0436667077690362,-0.0080830184742808,0.0123982746154069,0.019453939050436,standing
1783088886689306000,6.78730615234375,0.1348149323549121,-0.035126404569298,-0.0313104995429515,0.0042254719883203,0.0081066843122243,0.0298529583960771,standing
1783088886699349800,6.797349853515625,0.1063438940215855,-0.0287583308421075,0.007571896559,0.007397829554975,-0.0031188065186142,0.0386664234101772,standing
1783088886709394000,6.807393798828125,0.0639123540706932,-0.0226582604013383,0.0211041628271341,0.0099620819091796,-0.0119140744209289,0.0458097197115421,standing
1783088886719438000,6.81743798828125,0.0056621174149215,-0.0527320577561855,0.0412900417655706,0.0095823165029287,-0.0201677437871694,0.0471761897206306,standing
1783088886729482000,6.82748193359375,-0.0485901356458663,-0.0796659496501088,0.0488777204155921,0.0104901324957609,-0.0153244333341717,0.0394084714353084,standing
1783088886739526100,6.837526123046875,-0.0474136392123997,-0.0988059727974235,0.0797854843765497,0.0046167969703674,0.0027174171991646,0.0263651087880134,standing
1783088886749571000,6.847571044921875,0.0218280931875109,-0.0953210532911121,0.1748801815658807,-0.0070618567988276,0.01130704395473,0.0113190189003944,standing
1783088886759615000,6.857614990234375,0.0816639915995299,-0.0384030881524085,0.1867307783573865,-0.0290411915630102,0.0189340710639953,-0.0006641407962888,standing
1783088886769659100,6.8676591796875,0.0986892876151949,0.0192930217519402,0.1195399871379137,-0.047075480222702,0.0168166104704141,-0.0122742932289838,standing
1783088886779702800,6.877702880859375,0.050328430680558,0.060143649186939,0.0500742367237806,-0.0477537848055362,0.0150448093190789,-0.0184357818216085,standing
1783088886789747000,6.887746826171875,-0.0711792763337492,0.043701632951945,0.0302151055216789,-0.0414925329387187,0.0157355573028326,-0.0287758391350507,standing
1783088886799791000,6.897791015625,-0.0548906240295618,0.0383383523531258,0.0286298821568489,-0.0360242649912834,-0.0149738853797316,-0.0236793495714664,standing
1783088886809835000,6.9078349609375,-0.0417806748267263,0.0259583248600363,-0.0884060132056474,-0.0149782095104455,-0.0226826891303062,-0.0127150118350982,standing
1783088886819880000,6.9178798828125,-0.1096451275240629,0.0177948921486735,-0.0234966109216213,0.0095737390220165,-0.0287951752543449,-0.0213718842715024,standing
1783088886829924000,6.927924072265625,-0.0757435885746032,-0.0026657120779156,0.0191360776245594,0.0193794444203376,-0.0244095437228679,-0.0344202704727649,standing
1783088886839968000,6.937968017578125,-0.0505906618133187,0.0200438401192426,0.1495931800961494,0.0141439363360404,-0.0123619344085454,-0.0394757464528083,standing
1783088886850012200,6.94801220703125,-0.043280557995662,-0.0046861119896173,0.2048573866784572,-0.0022420668974518,0.0029153083451092,-0.0420087240636348,standing
1783088886860055800,6.958055908203125,-0.0754329151902347,-0.0302548530101776,0.2023018569767475,-0.0133176213130354,0.0243460312485694,-0.0443443171679973,standing
1783088886870100000,6.968099853515625,-0.087513082953915,-0.0237473708122968,0.1611480088114738,-0.0135197024792432,0.0469287596642971,-0.0453325361013412,standing
1783088886880144000,6.978143798828125,-0.0845011147215962,-0.0104215869016945,0.1305646544992923,-0.0107249803841114,0.0654651597142219,-0.0410062298178672,standing
1783088886890189000,6.98818896484375,-0.0412530707560479,-0.0355398076757788,0.0689595544576644,0.0009292240720242,0.0742071792483329,-0.0299658365547657,standing
1783088886900233000,6.99823291015625,0.0209423963941633,-0.0402222664035856,0.0275432559639215,0.011394914239645,0.0839727222919464,-0.0190410185605287,standing
1783088886910276900,7.00827685546875,0.0620720599662512,-0.002886953613162,0.0385994875073432,0.0229542590677738,0.0860712155699729,-0.0137730855494737,standing
1783088886920321000,7.018321044921875,0.0671333619438111,-0.004530044645071,0.0671142188519239,0.022630950435996,0.0847233906388282,-0.0074507417157292,standing
1783088886930365200,7.028365234375,0.0645571547802537,0.0077018065489828,0.0754436557799577,0.0129695888608694,0.0814544185996055,-0.0015430925413966,standing
1783088886940408800,7.038408935546875,-0.0048117841958999,-0.0112483931146562,0.1181961713135242,-0.0047742538154125,0.0730249807238578,0.0059606302529573,standing
1783088886950453000,7.048452880859375,-0.0683160689223557,-0.0498657085396349,0.1114566339254379,-0.0238019004464149,0.0642997995018959,0.0190124902874231,standing
1783088886960498200,7.058498291015625,-0.0915285291403532,-0.045446284662187,0.0677507631897926,-0.027126058936119,0.0541030913591384,0.0221717972308397,standing
1783088886970542000,7.0685419921875,-0.0818314571209251,-0.0195937582641839,0.036576457247138,-0.0167895294725894,0.0433386042714118,0.0267926882952451,standing
1783088886980586000,7.0785859375,-0.0053345659609884,0.0043257542446255,-0.0116465986520051,0.007378923241049,0.0287745743989944,0.0251319408416748,standing
1783088886990630000,7.0886298828125,0.017690043534711,0.0428330334238708,-0.0114805944353342,0.0356979630887508,0.0248887632042169,0.0263328254222869,standing
1783088887000674000,7.098674072265625,-0.0287585500378161,0.0589924333252012,0.0170680391788482,0.0507781133055686,0.0292030852288007,0.0305568650364875,standing
1783088887010718200,7.10871826171875,-0.0749701930493116,0.0443579049035906,0.0954553471952676,0.0501261204481124,0.0316083170473575,0.0401845425367355,standing
1783088887020761900,7.118761962890625,-0.1104150889832526,0.0151019998028874,0.1372398944795131,0.0348363779485225,0.0400207117199897,0.0438154973089695,standing
1783088887030807000,7.12880712890625,-0.1060060403693467,0.0017955051146447,0.1570037486135959,0.0207436792552471,0.0519871264696121,0.0464140027761459,standing
1783088887040851000,7.138850830078125,-0.0608308277335017,-0.0091230715237557,0.1786965249836444,0.0052869580686092,0.062324184924364,0.0452701747417449,standing
1783088887050894800,7.148894775390625,0.0090999829091131,0.0056545186303555,0.1693482664018869,-0.0035097324289381,0.0755821168422699,0.0419537238776683,standing
1783088887060939000,7.15893896484375,0.0387293974973261,-0.0017680325858294,0.1606955888688564,-0.0123213334009051,0.0822067260742187,0.0337884724140167,standing
1783088887070983000,7.16898291015625,0.0997018987238407,0.0090425536334514,0.1315448977082967,-0.0209678709506988,0.0772042796015739,0.0199246481060981,standing
1783088887081027000,7.179027099609375,0.1088360030982643,0.0441489383280277,0.0644195729404687,-0.0282300449907779,0.0598204955458641,0.008828854188323,standing
1783088887091071000,7.189071044921875,0.1025518082622438,0.0236535550490021,-0.0162321728765964,-0.023304421454668,0.0329757593572139,0.0027141130995005,standing
1783088887101116000,7.199115966796875,0.0472173859879374,0.0445617569126188,-0.0641062692075967,-0.010516189970076,0.0011160965077579,-0.0017932867631316,standing
1783088887111160000,7.20916015625,-0.0504969921804964,0.0243659411020576,-0.0834136117458343,0.0067394953221082,-0.026535827666521,-0.0171095617115497,standing
1783088887121204000,7.219203857421875,-0.129182771686837,-0.0072847501806914,-0.0701169077992439,0.0275550298392772,-0.0388689264655113,-0.0324698761105537,standing
1783088887131247900,7.229247802734375,-0.12595306905061,0.0024548458062112,-0.0154249481469392,0.0444542244076728,-0.043620828539133,-0.0519260913133621,standing
1783088887141292000,7.2392919921875,-0.1096844366211444,0.0428353715114295,0.0701239220619201,0.04696611687541,-0.0383578911423683,-0.0645489394664764,standing
1783088887151336000,7.2493359375,-0.1157010665621608,0.0560382596947252,0.1546095469534397,0.0325426533818244,-0.0280030015856027,-0.0778765678405761,standing
1783088887161380000,7.259380126953125,-0.0768316030070185,0.0335574016869068,0.1995826611459255,0.0054527092725038,-0.0225443206727504,-0.0937612578272819,standing
1783088887171425000,7.269425048828125,-0.0096068364527076,0.0212286659896373,0.1843196255624294,-0.0163264628499746,-0.0137383304536342,-0.1007282510399818,standing
1783088887181469200,7.27946923828125,0.0868364258013665,0.0190317404672503,0.1704518437296152,-0.0220903418958187,-0.0007090824656188,-0.0976219400763511,standing
1783088887191513000,7.28951318359375,0.1237115737341344,0.024207681800425,0.1395563547283411,-0.0141908731311559,0.0152590200304985,-0.0899654552340507,standing
1783088887201557200,7.29955712890625,0.1206957330442965,0.020833821453154,0.1220961013615131,-0.0055102994665503,0.027160421013832,-0.0796979069709777,standing
1783088887211601200,7.30960107421875,0.1076915823034942,-0.0009000175796449,0.1016921957582235,-0.0017043225234374,0.0336066037416458,-0.0677913799881935,standing
1783088887221645000,7.31964501953125,0.0504839865684509,0.0094847444429993,0.1083873094826936,-0.0067672580480575,0.0346814580261707,-0.057760052382946,standing
1783088887231689200,7.329689208984375,0.0230959942314773,-0.0100604985043406,0.0968681366026401,-0.009785259142518,0.0318044237792491,-0.0504631549119949,standing
1783088887241734100,7.339734130859375,0.0227869282823055,-0.0195529878623783,0.0573573794692754,-0.0046637337654829,0.0295455306768417,-0.0428648926317691,standing
1783088887251778000,7.349778076171875,0.001955371851474,-0.0004383914172649,0.0283726925253868,0.0103156417608261,0.0316347070038318,-0.0378451682627201,standing
1783088887261822200,7.359822265625,-0.0343386882577091,-0.0025194354750216,0.0262976398169994,0.02372039668262,0.0340230278670787,-0.0358238257467746,standing
1783088887271866000,7.3698662109375,-0.0506874001860618,-0.0127165659710764,0.0485439584165811,0.0198765508830547,0.0313750840723514,-0.0351617597043514,standing
1783088887281910300,7.37991015625,-0.042667102272436,-0.0150147599108517,0.0717196668207645,-0.0007871831767261,0.0219480264931917,-0.0271680168807506,standing
1783088887291954000,7.389953857421875,-0.0175314189068973,-0.0219148946881294,0.1020142673194408,-0.0250621102750301,0.0082501722499728,-0.0229763351380825,standing
1783088887301998000,7.399998046875,0.0410207233048975,0.0002086743146181,0.0821703336864709,-0.034940306097269,-0.0062624574638903,-0.0222042854875326,standing
1783088887312043300,7.410043212890625,0.0644742988023907,0.0153578742600977,0.0196364283621311,-0.0226818826049566,-0.0129522811621427,-0.0169248320162296,standing
1783088887322087200,7.420087158203125,0.0614734364859759,0.013903437668085,-0.0068821607291698,-0.0004748476203531,-0.0154513921588659,-0.0088570518419146,standing
1783088887332131000,7.430131103515625,0.0333984847981482,0.0035819501399993,0.0129553431630134,0.0227320492267608,-0.0072874762117862,-0.0002437450457364,standing
1783088887342175200,7.44017529296875,0.022734759703651,-0.0119277536809444,0.0624590865224599,0.0284021832048892,0.0014911019243299,0.0036740312352776,standing
1783088887352219100,7.45021923828125,-0.0088496614098548,-0.0020912731908261,0.148016140037775,0.0141402073204517,0.0096100969240069,0.0093843964859843,standing
1783088887362263300,7.46026318359375,-0.0022512129928916,-0.0185234986841678,0.1956248634308576,-0.0069664092734456,0.0165755935013294,0.0147045943886041,standing
1783088887372307000,7.470306884765625,0.0481591968826949,-0.0304164733126759,0.1962672529876232,-0.0249350219964981,0.0194863714277744,0.0129366172477602,standing
