time,seconds_elapsed,accel_x,accel_y,accel_z,gyro_x,gyro_y,gyro_z,label
1783090371420707800,0.065707763671875,-0.7866587653599679,-0.5599018276929855,-0.3416688266128301,0.3264477550983429,0.1018461138010025,-0.0033541603479534,standing
1783090371430751700,0.075751708984375,-0.43463725236319,-0.4854666183032095,-0.1189899520397186,0.3141314387321472,0.0813661366701126,-0.0124113047495484,standing
1783090371440797000,0.085796875,-0.1974372466150671,-0.3763507022850215,-0.0738105016201734,0.3219140768051147,0.0590787976980209,-0.0132989734411239,standing
1783090371450840800,0.0958408203125,-0.1556666547909379,-0.228823076416552,0.0160936411887407,0.3301341831684112,0.0403072386980056,0.0015079354634508,standing
1783090371460884700,0.105884765625,-0.2612350343953818,-0.2567263978645205,0.1403273391008377,0.3350505530834198,0.0501668378710746,0.0096997544169425,standing
1783090371470930000,0.115929931640625,-0.4700410125691443,-0.2495038261998444,0.2510539051860571,0.3441281914710998,0.0742247700691223,0.0125701101496815,standing
1783090371480974000,0.12597412109375,-0.7508784999918192,-0.1309996849156916,0.3378746950268745,0.310191661119461,0.1162393689155578,0.0784800872206687,standing
1783090371491018800,0.136018798828125,-1.0379963097929954,0.0300000745315104,0.4439426216512918,0.2292544543743133,0.1267575323581695,0.1857146620750427,standing
1783090371501063000,0.14606298828125,-0.7435645967818796,-0.0782661658547818,0.7747060233682393,0.1688775420188903,0.1481702029705047,0.2481717020273208,standing
1783090371511107800,0.15610791015625,-0.1298532182943075,-0.5961622047282755,0.7271592592954635,0.1210218667984008,0.1545447409152984,0.2448794990777969,standing
1783090371521151700,0.16615185546875,0.1800320113711059,-0.586858662071079,0.7964964148938656,0.1059398353099823,0.1221158355474472,0.2630977928638458,standing
1783090371531197000,0.176197021484375,0.1243461453106254,-0.1671897731937467,0.7768348520904779,0.16058149933815,0.0850835144519805,0.3240620791912079,standing
1783090371541240800,0.18624072265625,-0.0237993201952427,0.0935713600795716,0.8607938227593899,0.2253978699445724,0.0331888608634471,0.3581588566303253,standing
1783090371551286000,0.1962861328125,0.0410501685950905,-0.077917936939001,0.9274877703726292,0.2266386300325393,-0.0813537016510963,0.3666806817054748,standing
1783090371561330000,0.206329833984375,-0.0452734123133122,-0.1924983289081603,0.8145061188369989,0.1726298332214355,-0.1862087994813919,0.3799184262752533,standing
1783090371571373800,0.216373779296875,-0.1918991209059953,-0.1604222518201917,0.7061404366642237,0.1196699514985084,-0.2841244637966156,0.3830628097057342,standing
1783090371581418200,0.226418212890625,-0.3470072650313377,-0.0976034651398658,0.5964701016336679,0.0974207445979118,-0.343714028596878,0.3593090176582336,standing
1783090371591462100,0.236462158203125,-0.4605624786712229,-0.1485408214990049,0.635972675460577,0.0934406518936157,-0.4122360944747925,0.2992781698703766,standing
1783090371601507000,0.246507080078125,-0.4242385348804295,-0.1969971746973693,0.729551122868061,0.0767648220062255,-0.5007879734039307,0.2200735062360763,standing
1783090371611551000,0.256551025390625,-0.4171452886838466,-0.2483231650479137,0.7105225972712039,0.0518863685429096,-0.6103458404541016,0.1500086635351181,standing
1783090371621596200,0.26659619140625,-0.4413126384738832,-0.3464254465553909,0.5619593447446822,0.0414202772080898,-0.6995731592178345,0.0814010426402092,standing
1783090371631640300,0.276640380859375,-0.4749553072914481,-0.4320988929919898,0.3178887225747108,0.0584503933787345,-0.7284168004989624,0.0021120808087289,standing
1783090371641685200,0.286685302734375,-0.3999889136344194,-0.5104138664245605,0.0982709891378879,0.0962138548493385,-0.6785030961036682,-0.079215407371521,standing
1783090371651729200,0.296729248046875,-0.3342924526259302,-0.4078394810043275,-0.1092939029335975,0.1089243218302726,-0.5676106810569763,-0.1349087655544281,standing
1783090371661773300,0.306773193359375,-0.2428859424300491,-0.1685076508592814,-0.3259609698712825,0.0749705657362937,-0.3987005650997162,-0.1490095853805542,standing
1783090371671818200,0.316818359375,-0.0981738123737275,0.0540302078079432,-0.5746066448718309,-0.0111376885324716,-0.1981451213359832,-0.1318215429782867,standing
1783090371681862100,0.326862060546875,0.1560796195060014,0.0829686444573104,-0.7591729386717081,-0.1151190400123596,-0.0030989660881459,-0.1100587323307991,standing
1783090371691907000,0.336906982421875,0.3040973669789731,0.0870830940388143,-0.7609528078258037,-0.1754990220069885,0.1781983822584152,-0.0729949921369552,standing
1783090371701951200,0.346951171875,0.381601754681021,0.1704461446411907,-0.8563654849231243,-0.2041166275739669,0.3352208137512207,-0.0157140474766492,standing
1783090371711996200,0.35699609375,0.559836507371813,0.1563308177880942,-0.9594149405092,-0.2125777453184127,0.4556851685047149,0.0432944148778915,standing
1783090371722040000,0.3670400390625,0.6096143914975226,0.249585805394873,-0.9936784446388482,-0.2000782340764999,0.5674377083778381,0.1052985861897468,standing
1783090371732085200,0.377085205078125,0.5663447202220558,0.3356177098803222,-0.7619108392030001,-0.1719579249620437,0.6379712224006653,0.1415431499481201,standing
1783090371742129200,0.387129150390625,0.4165066985193639,0.0980660411503165,-0.4374591048508882,-0.1311601400375366,0.6683182120323181,0.1567089110612869,standing
1783090371752174000,0.397174072265625,0.0420366223491728,-0.1128365439765155,-0.3345475964307784,-0.0964157432317733,0.7112787365913391,0.1492051929235458,standing
1783090371762218200,0.40721826171875,-0.1936814742781221,-0.2081059401456266,-0.1407189687669277,-0.0773414373397827,0.71096271276474,0.1267489492893219,standing
1783090371772262100,0.41726220703125,-0.225591985540837,-0.2039965320654213,0.0626718524903059,-0.0767427608370781,0.6406424641609192,0.1167258769273758,standing
1783090371782307000,0.42730712890625,-0.138487848713994,-0.1116412697773426,0.2053787802040576,-0.070379838347435,0.516834020614624,0.1183216422796249,standing
1783090371792351200,0.437351318359375,-0.0615833996664732,-0.0582568855922669,0.375188818898797,-0.0454430691897869,0.3561828434467315,0.1198404431343078,standing
1783090371802396200,0.447396240234375,-0.0711880441620946,-0.097741120044887,0.4169616757452488,7.30999745428e-05,0.2067597359418869,0.1097452044486999,standing
1783090371812440000,0.457440185546875,-0.1411365365918725,-0.1380479959920048,0.2751765390515327,0.0303678903728723,0.1150756180286407,0.0845511630177497,standing
1783090371822485200,0.4674853515625,-0.3854901404216885,-0.1277658175610005,0.0585609100401401,0.0268027149140834,0.0896208584308624,0.0577206201851367,standing
1783090371832529200,0.477529052734375,-0.3446496690545231,-0.0525008793488144,0.1155915417730808,0.0299950446933507,0.0693307667970657,0.0406079441308975,standing
1783090371842574000,0.487573974609375,-0.1005116807367652,-0.0162308577023446,0.2653893045306205,0.04602812230587,0.0566784627735614,0.0235540568828582,standing
1783090371852618200,0.4976181640625,-0.0575118393786251,-0.0675419427447021,0.3840589385747909,0.0685150548815727,0.0557069405913353,-0.0055135474540293,standing
1783090371862662100,0.507662109375,-0.1456435656875372,-0.068037178915739,0.3864952258110046,0.0817181840538978,0.0916024595499038,-0.0303719751536846,standing
1783090371872707000,0.51770703125,-0.1503348653089255,-0.03296381970793,0.348239437174797,0.0617138445377349,0.142608642578125,-0.0354937650263309,standing
1783090371882751200,0.527751220703125,-0.0249994167000055,-0.0267861539863049,0.371031699219346,0.0035355845466256,0.1786655634641647,-0.0451481230556964,standing
1783090371892796200,0.537796142578125,0.1541039355188608,-0.1080869382966309,0.3952963719040155,-0.0621257163584232,0.1765038818120956,-0.0662163868546485,standing
1783090371902840000,0.547840087890625,0.3458689817164093,-0.1191964343972504,0.2871820341438055,-0.1127653867006301,0.1378412693738937,-0.0814366117119789,standing
1783090371912885200,0.55788525390625,0.3902470526251941,-0.0324136384792625,0.0521948821395635,-0.1357782930135727,0.0960743725299835,-0.0788016766309738,standing
1783090371922929200,0.56792919921875,0.172783501547575,0.0358821913726627,-0.2194406233042478,-0.1378068923950195,0.0554561987519264,-0.0406927950680255,standing
1783090371932974000,0.57797412109375,0.125862614288181,0.0742348645120859,-0.1680325076282024,-0.1070151552557945,-0.0020835259929299,0.0180994179099798,standing
1783090371943018200,0.588018310546875,0.2555437639512121,0.1087114268705248,0.0341822555869817,-0.0461563542485237,-0.0721594840288162,0.07133150100708,standing
1783090371953063200,0.598063232421875,0.3617590631570667,0.1356988025173544,0.1929115128189325,0.0183731019496917,-0.1606669723987579,0.1012601032853126,standing
1783090371963107000,0.608107177734375,0.3200664319399744,0.1110332939468324,0.2210410442382097,0.0638601630926132,-0.2060195356607437,0.1115931645035743,standing
1783090371973151200,0.618151123046875,0.2805802247259765,0.0954953138794749,0.2236281381219625,0.0758289396762847,-0.196897953748703,0.1100586503744125,standing
1783090371983196200,0.628196044921875,0.1963809424951672,0.0465101145014166,0.2627098561882972,0.0568899437785148,-0.1471143513917923,0.1028795763850212,standing
1783090371993240000,0.638239990234375,0.029925767186284,0.0025032149925827,0.4467915813416242,0.0228914953768253,-0.0598505400121212,0.0862808972597122,standing
1783090372003285200,0.64828515625,-0.1014420203894376,-0.0143556384149938,0.5966963116049766,-0.0410470739006996,0.0265457052737474,0.0546136349439621,standing
1783090372013329200,0.6583291015625,-0.0946173620011657,-0.0519591736875474,0.6517641188323497,-0.1081653907895088,0.0967215970158577,0.0159160401672124,standing
1783090372023374000,0.6683740234375,-0.1019563996523618,-0.1191886164169758,0.5313496869474649,-0.1417548209428787,0.163175344467163,-0.0280271135270595,standing
1783090372033418200,0.678418212890625,-0.1567149217348545,-0.2155056950081139,0.3253425457119941,-0.1367640495300293,0.2030133008956909,-0.0808266773819923,standing
1783090372043463200,0.688463134765625,-0.1822739450789988,-0.2807655912302434,0.1373024383217096,-0.0947643667459487,0.2274376153945922,-0.126792773604393,standing
1783090372053507000,0.698507080078125,-0.1799422141958028,-0.3167958127714693,-0.0472223544239997,-0.0418087430298328,0.2437825053930282,-0.172575443983078,standing
1783090372063551200,0.70855126953125,-0.1830024054840207,-0.4123238598767668,-0.3032593087196349,-0.0037886577192693,0.2627774775028229,-0.2199874371290207,standing
1783090372073596200,0.71859619140625,-0.0914530162187293,-0.4571791198432445,-0.4578320307940244,0.0221515968441963,0.2771359086036682,-0.2570679485797882,standing
1783090372083640000,0.72864013671875,0.0140710858525708,-0.4128095975670963,-0.4176613484472036,0.0206521246582269,0.2593526542186737,-0.2839803397655487,standing
1783090372093685200,0.738685302734375,0.0421134504450485,-0.4090104244798421,-0.2755313438385725,0.015001961030066,0.2382412403821945,-0.2910776436328888,standing
1783090372103729200,0.748729248046875,0.0172621369788423,-0.400847576290369,-0.067938394716382,0.0092134661972522,0.2128107398748397,-0.2926797866821289,standing
1783090372113774000,0.758774169921875,0.0330440453372895,-0.3399945367250591,0.1435012929618358,0.013729921542108,0.1895192563533783,-0.2846852540969848,standing
1783090372123818200,0.768818359375,0.0606837474130094,-0.2632489315010607,0.2244920614749193,0.025753928348422,0.1991312801837921,-0.2703790366649627,standing
1783090372133863200,0.77886328125,0.0397989994902163,-0.2293388439189642,0.2564309220492839,0.0346515513956546,0.2231607288122177,-0.2490801215171814,standing
1783090372143907000,0.788906982421875,0.0652828752389177,-0.1837537353079766,0.3104635410100221,0.027031660079956,0.244890496134758,-0.2293525636196136,standing
1783090372153951200,0.798951171875,0.2430069019285962,-0.0951617710761725,0.2474509122580289,-0.0003882464952766,0.2630828022956848,-0.2039870321750641,standing
1783090372163996200,0.80899609375,0.328108832087554,0.0154074124902486,0.1061713869988918,-0.0305233336985111,0.2892011106014251,-0.1706648916006088,standing
1783090372174040000,0.8190400390625,0.3683354824053123,0.0850710966292768,-0.0686766458630561,-0.0691841766238212,0.3261348903179168,-0.1450700461864471,standing
1783090372184085200,0.829085205078125,0.3603695084948092,0.1186138122037053,-0.2187988182693719,-0.1001843437552452,0.3581392765045166,-0.119949109852314,standing
1783090372194129200,0.839129150390625,0.2694389817802235,0.1581812679603695,-0.3021329350382089,-0.1109528392553329,0.3994883000850677,-0.1050529852509498,standing
1783090372204174000,0.849174072265625,0.0527570825995877,0.1522794965706765,-0.2404559388041496,-0.117573358118534,0.4173492193222046,-0.0979652553796768,standing
1783090372214218200,0.85921826171875,-0.1915578331876546,0.0804633836381137,-0.1815577596336603,-0.1225121915340423,0.4163841009140014,-0.1019317731261253,standing
1783090372224263200,0.86926318359375,-0.3721751701660454,-0.0829386877104639,-0.1005354269385337,-0.1147613450884819,0.4049843847751617,-0.1200011745095253,standing
1783090372234307000,0.87930712890625,-0.3382761154346168,-0.2177988474465906,-0.0483154103577136,-0.1044309437274932,0.3843638002872467,-0.1521899998188018,standing
1783090372244351200,0.889351318359375,-0.2545944273371249,-0.2571738493710756,-0.0130751701503992,-0.08968386054039,0.3306531906127929,-0.1842890828847885,standing
1783090372254396200,0.899396240234375,-0.1902855116968974,-0.2891726234391331,-0.0657587125897407,-0.0629148259758949,0.2556434273719787,-0.2101089656352996,standing
1783090372264440000,0.909440185546875,-0.1485641475756652,-0.2739864524841308,-0.1466331612467765,-0.0304902661591768,0.1645967960357666,-0.2302908599376678,standing
1783090372274485000,0.919485107421875,-0.0762380392943508,-0.3010297961018979,-0.1922726303935051,-0.0128239206969738,0.0715981349349021,-0.2384696900844574,standing
1783090372284529200,0.929529052734375,0.0782390495189931,-0.3916271818719804,-0.1402910987436771,-0.0055879279971122,-0.0192813631147146,-0.2342310100793838,standing
1783090372294574300,0.93957421875,0.1408237534488085,-0.418863417713344,-0.1709247219383716,-0.0089405812323093,-0.0643199458718299,-0.2301337420940399,standing
1783090372304618200,0.9496181640625,0.1482069590352941,-0.3915893340796232,-0.2000765821427106,-0.0203031301498413,-0.0824051722884178,-0.2246074080467224,standing
1783090372314663200,0.9596630859375,0.1699286783720366,-0.43497064903602,0.068380293264985,-0.0089633921161293,-0.0747366026043891,-0.207484096288681,standing
1783090372324707300,0.969707275390625,0.0779247594054322,-0.3166125651590526,0.1650187127649784,0.0171201732009649,-0.0541425570845603,-0.1802843660116195,standing
1783090372334751200,0.979751220703125,0.0385923636468127,-0.3005557488493621,0.2681365574121475,0.0402955338358879,-0.0287514422088861,-0.1576568037271499,standing
1783090372344796200,0.989796142578125,-0.0287712907883804,-0.3843319102972746,0.326892697763443,0.0432773455977439,0.0087535474449396,-0.1363549083471298,standing
1783090372354840000,0.999840087890625,-0.1924789300879463,-0.4273972911722958,0.3268950358510017,0.0166228301823139,0.0543809533119201,-0.1232614889740943,standing
1783090372364885000,1.009885009765625,-0.2900602564612403,-0.4981798232734203,0.299122647306323,-0.0237071942538023,0.1003027558326721,-0.1115301325917244,standing
1783090372374929200,1.01992919921875,-0.211188124069944,-0.4569166695147753,0.3132692460805177,-0.0515063367784023,0.0893805995583534,-0.0846220850944519,standing
1783090372384974300,1.029974365234375,0.1415343494035769,-0.3120179308451712,0.3424257824599743,-0.055367037653923,0.0598508641123771,-0.0532468408346176,standing
1783090372395018000,1.04001806640625,0.3337348187431693,-0.1811623305752873,0.1203746843963861,-0.0439892150461673,0.0469446517527103,-0.0379331335425376,standing
1783090372405063200,1.050063232421875,0.2869343795256689,-0.1129858893193304,-0.1193213759511709,-0.0312970280647277,0.0671634078025817,-0.0209150053560733,standing
1783090372415107300,1.060107421875,0.2261526881635188,-0.116820206785202,-0.1796229921787977,-0.0293159056454896,0.0771782249212265,0.0006576657760888,standing
1783090372425151200,1.070151123046875,0.2175261314524337,-0.0845924462668597,-0.0943278044700622,-0.0292835962027311,0.0789664611220359,0.0298997107893228,standing
1783090372435196200,1.080196044921875,0.185014731687121,-0.0880269507601857,-0.0346545492738485,-0.0307669769972562,0.0595746524631977,0.0712301060557365,standing
1783090372445240300,1.090240234375,0.16856436774889,-0.0969410557083785,0.0195721309542655,-0.0333837866783142,0.0128905363380908,0.1066920831799507,standing
1783090372455285000,1.100284912109375,0.1956885763168334,-0.120160457123816,0.0781722039610147,-0.019655454903841,-0.0308066103607416,0.1364132314920425,standing
1783090372465329200,1.1103291015625,0.1663779088215902,-0.1767098812110722,0.0665168374806642,0.0028830498922616,-0.0509971342980861,0.1644645780324936,standing
1783090372475374300,1.120374267578125,0.2169462126726284,-0.225509860215336,0.0701134006679058,0.0279809460043907,-0.0504285469651222,0.1883454024791717,standing
1783090372485418000,1.13041796875,0.2362143557116389,-0.2408982757441699,0.0370849912911653,0.0509164817631244,-0.023661533370614,0.2092952281236648,standing
1783090372495463200,1.140463134765625,0.2605444217827171,-0.1841273178607225,-0.0410357747435569,0.0615896321833133,0.0181066878139972,0.2115634381771087,standing
1783090372505507300,1.15050732421875,0.3812977302331477,-0.1236586745031178,-0.0301046308845281,0.0509296767413616,0.0475402772426605,0.204235553741455,standing
1783090372515552000,1.160552001953125,0.3507918250713497,-0.0653996700190007,-0.0482785854786634,0.0245747677981853,0.0667089149355888,0.1911897957324981,standing
1783090372525596200,1.17059619140625,0.1455285610057413,-0.0760993432097136,-0.1278922204196453,-0.0067461943253874,0.077504351735115,0.1795867383480072,standing
1783090372535640300,1.180640380859375,-0.0145757748385425,-0.2287074872128665,-0.0708054745852947,-0.0326299890875816,0.0743535608053207,0.1677268743515014,standing
1783090372545685000,1.19068505859375,-0.1284690521932207,-0.3603589140355587,-0.0009890110373497,-0.048135433346033,0.05344058573246,0.1584791839122772,standing
1783090372555729200,1.200729248046875,-0.1453685572715941,-0.4258971157424152,0.0888210237473249,-0.0424754172563552,0.0396869592368602,0.1365168839693069,standing
1783090372565774000,1.210774169921875,-0.0909413586358539,-0.410589364234358,0.1546937181055545,-0.0253829043358564,0.0332144200801849,0.1060129180550575,standing
1783090372575818800,1.22081884765625,-0.0124463912771665,-0.3290371624462306,0.1587245810568332,-0.0258353743702173,0.0270619839429855,0.0598337054252624,standing
1783090372585864000,1.230864013671875,0.0149908013632404,-0.2708526845030486,0.109287473192811,-0.0292887911200523,0.0108417756855487,0.0191282238811254,standing
1783090372595907800,1.240907958984375,0.045167787381215,-0.2954788839764893,0.0782411775439977,-0.0260437317192554,-0.0257995929569005,-0.0083971442654728,standing
1783090372605951700,1.25095166015625,0.0219167487184982,-0.3597076105199754,0.0050046764194965,-0.0037645194679498,-0.0646288245916366,-0.0208142660558223,standing
1783090372615997000,1.260996826171875,-0.0545376002076547,-0.3729533149316906,-0.0613256985783576,0.0228348672389984,-0.0934511497616767,-0.0268979929387569,standing
1783090372626040800,1.271040771484375,-0.1527519820537883,-0.4013600558571517,-0.1053594860941171,0.0410304851830005,-0.0910006314516067,-0.0200616661459207,standing
1783090372636085800,1.281085693359375,-0.1197258468325249,-0.4166420884020626,0.0369938058763742,0.0383742488920688,-0.0757969170808792,-0.0105091743171215,standing
1783090372646130000,1.2911298828125,0.0357124836618313,-0.4611658513918519,0.1611772349059581,0.0332798361778259,-0.0443296432495117,-0.0059923841618001,standing
1783090372656174800,1.3011748046875,0.1576439644795842,-0.4391938196890055,0.1476765328198671,0.0375869683921337,-0.0083940140902996,-0.0019896528683602,standing
1783090372666218800,1.31121875,0.1748753592602908,-0.3874002118267118,0.0689507866293191,0.0526949316263198,0.0427770316600799,0.0007742510642856,standing
1783090372676264000,1.321263916015625,0.1690763723916374,-0.3988243998996913,0.0439835186332464,0.0590228699147701,0.0812930017709732,0.005158613435924,standing
1783090372686307800,1.331307861328125,0.1302001685684546,-0.3442584047146141,0.0804828189909458,0.0498127005994319,0.1014587134122848,0.0111967846751213,standing
1783090372696353000,1.34135302734375,0.0384366524952929,-0.3067036039546132,0.0541068532407283,0.0335935205221176,0.0995817184448242,0.0139648746699094,standing
1783090372706397000,1.35139697265625,-0.0197655163682065,-0.2964651185348629,-0.0210994866520166,0.0197192393243312,0.0941210687160492,0.0063170823268592,standing
1783090372716440800,1.36144091796875,-0.0402383316223975,-0.2774735639475286,-0.0032376667469739,0.0107337338849902,0.0708322525024414,-0.0062498422339558,standing
1783090372726486000,1.371486083984375,-0.033314793136646,-0.2605018247500061,0.0405845238447189,0.010120446793735,0.0239619519561529,-0.0080595230683684,standing
1783090372736530000,1.381530029296875,-0.0780088300928473,-0.2294412083148956,-0.0432160413920879,0.0148638039827346,-0.0276245437562465,0.0090097412467002,standing
1783090372746574800,1.391574951171875,-0.1027752782871946,-0.1999259216256439,-0.1087666641891002,0.0326535515487194,-0.072697602212429,0.0220621507614851,standing
1783090372756619000,1.401618896484375,0.0166945776403998,-0.2144385772332549,-0.077358549490571,0.0628900229930877,-0.1066901907324791,0.0222728066146373,standing
1783090372766663700,1.41166357421875,0.0609028654898283,-0.1853257338650524,-0.0583306084156036,0.0866352468729019,-0.1087372079491615,0.0094095431268215,standing
1783090372776707800,1.421707763671875,0.0782061427632346,-0.17551555685997,-0.0059077627390623,0.0915019065141677,-0.0923467800021171,0.0024685461539775,standing
1783090372786753000,1.4317529296875,0.1023990745190996,-0.1945669518757611,0.0817465553164482,0.0772936791181564,-0.07613106071949,-0.0047526154667139,standing
1783090372796796700,1.441796630859375,0.0461618125203996,-0.2317122950520366,0.1091524486362934,0.053575299680233,-0.0497364699840545,-0.0027147640939801,standing
1783090372806840800,1.4518408203125,-0.040540556838829,-0.3030206776581704,0.0935410380065441,0.0397754609584808,-0.0216081216931343,0.0033649012912064,standing
1783090372816886000,1.461885986328125,-0.013627821897366,-0.295463905603066,0.1583306133031845,0.0356499589979648,-0.0163473132997751,0.00629757437855,standing
1783090372826930000,1.471929931640625,0.061778689343133,-0.273723125372827,0.1319885498225688,0.0369020029902458,-0.0101077584549784,0.0040408093482255,standing
1783090372836974800,1.481974853515625,0.018505976727209,-0.2265678448356688,0.0348322439283132,0.0310158841311931,-0.0001709717325866,-0.0010660684201866,standing
1783090372847019000,1.49201904296875,0.0029336879648733,-0.2017303406991064,0.0184241299629211,0.0272263754159212,0.0056273052468895,0.0003127881791442,standing
1783090372857063700,1.502063720703125,-0.0042549631638918,-0.1602641386490315,0.0256628490447998,0.0313729159533977,0.0090846214443445,-0.0074287541210651,standing
1783090372867107800,1.51210791015625,-0.0645299927786924,-0.1167895193859934,0.0019967267751693,0.0375181213021278,0.0344799906015396,-0.0151060512289404,standing
1783090372877153000,1.522153076171875,-0.1763837727955542,-0.0847560393307357,-0.00397241076231,0.0349151492118835,0.0544126853346824,-0.02476267516613,standing
1783090372887196700,1.53219677734375,-0.0912325692679267,-0.1282815850634127,0.1405424431562423,0.0291804410517215,0.0589473955333232,-0.0230790954083204,standing
1783090372897240800,1.54224072265625,-0.0684381563654868,-0.1492156520206481,0.1608364586442708,0.0316238887608051,0.0604041442275047,-0.0193906165659427,standing
1783090372907286000,1.5522861328125,-0.1101911166348028,-0.1514864464968442,0.0665735361039638,0.0393273867666721,0.0692951157689094,-0.0192346200346946,standing
1783090372917329700,1.56232958984375,-0.0451061842539347,-0.145155197648704,0.0288970086604356,0.0374796874821186,0.0698517113924026,-0.010608373209834,standing
1783090372927374800,1.572374755859375,0.0512913345956942,-0.1408176799010485,0.0115583358466625,0.039412997663021,0.0549853444099426,0.0055260616354644,standing
1783090372937419000,1.5824189453125,0.0945707098478451,-0.1483715293467044,-0.0006558335602283,0.045335866510868,0.0336960367858409,0.0296364575624465,standing
1783090372947463700,1.592463623046875,0.1275260722546838,-0.1611781116887927,-0.0347866512209177,0.0534829273819923,0.0043038656003773,0.0529564246535301,standing
1783090372957507800,1.6025078125,0.0962661795209627,-0.1827891280595213,-0.0749146634697914,0.0695905238389968,-0.0132234618067741,0.0717527493834495,standing
1783090372967553000,1.612552978515625,0.0409723449853714,-0.1863281889058649,-0.0362193143725395,0.0740169212222099,-0.0250683277845382,0.0755119994282722,standing
1783090372977596700,1.6225966796875,0.0209667111348011,-0.1924873691227287,0.0582581277012825,0.0648029148578643,-0.0259897820651531,0.0723937004804611,standing
1783090372987640800,1.632640869140625,-0.0500839726665057,-0.2097184899087995,0.1221434476345777,0.0386976599693298,-0.0300748310983181,0.06857231259346,standing
1783090372997686000,1.64268603515625,-0.1033863228576257,-0.2061375626821071,0.1293009181737899,0.0118671106174588,-0.0202810540795326,0.0664215460419654,standing
1783090373007729700,1.652729736328125,-0.1050655537819955,-0.1994554545696824,0.1490793853551149,-0.0046788742765784,-0.014849055558443,0.0657579079270362,standing
1783090373017774800,1.66277490234375,-0.0815160710288211,-0.2068667537394911,0.0996370167940855,-0.0055926046334207,-0.0041846917010843,0.0604204051196575,standing
1783090373027819000,1.672819091796875,-0.0371995301820803,-0.1903166740201413,0.0293973593980073,-0.002798416186124,-0.005477390717715,0.0481264516711235,standing
1783090373037864000,1.682864013671875,0.0528038717502262,-0.1215197627782821,0.0065156655043363,0.0040997038595378,-0.0125904269516468,0.0486431047320365,standing
1783090373047907800,1.692907958984375,0.0804056164357345,-0.1032823875591158,-0.0134720605134963,0.0063288649544119,-0.0336779095232486,0.0562140680849552,standing
1783090373057952800,1.702952880859375,0.0834262520316988,-0.1140046379078179,-0.0580167201608419,0.002980472985655,-0.0582346506416797,0.0645289868116378,standing
1783090373067997000,1.712996826171875,0.1469984965609852,-0.127927145602554,-0.027197219005227,0.0003854555543512,-0.0932838022708892,0.0767693370580673,standing
1783090373078040800,1.723040771484375,0.1419883859145455,-0.2002237355284392,-0.0134738140791654,-0.0003549032844603,-0.1182091236114502,0.0896084308624267,standing
1783090373088086000,1.7330859375,0.0570133426714222,-0.2257314670767635,-0.0465916553050279,0.0017924250569194,-0.1192857921123504,0.0976814925670623,standing
1783090373098129700,1.743129638671875,-0.0594881124542327,-0.217735572952032,-0.0165682729631662,0.0010864210780709,-0.098093956708908,0.0914502218365669,standing
1783090373108174800,1.7531748046875,-0.1269784483092837,-0.231920019518584,0.075657590791583,-0.0101556647568941,-0.0711040720343589,0.0766848549246788,standing
1783090373118219000,1.763218994140625,-0.0787053792559541,-0.213016289345175,0.1395703832536936,-0.0305006168782711,-0.059356864541769,0.0540352091193199,standing
1783090373128264000,1.773263916015625,-0.0048898818002548,-0.1644446392040699,0.1550748263776302,-0.0485477000474929,-0.061336699873209,0.0320781059563159,standing
1783090373138307800,1.783307861328125,-0.0308581069997977,-0.1146550646405667,0.0942962402880191,-0.0470358207821846,-0.0760802328586578,0.0263243466615676,standing
1783090373148352800,1.793352783203125,-0.0900673888129182,-0.1436142518170177,0.0223895264625549,-0.0275083240121603,-0.0979770421981811,0.0311157032847404,standing
1783090373158397000,1.80339697265625,-0.074750960808061,-0.2044878227137029,0.0301817877739667,-0.0023039020597934,-0.1283828765153885,0.0348704978823661,standing
1783090373168440800,1.81344091796875,-0.0417114637817256,-0.2270310784332454,0.0445949285298585,0.0101293278858065,-0.1519411355257034,0.0497150905430316,standing
1783090373178485800,1.82348583984375,-0.04760819367012,-0.2273445282965898,0.0507879379510879,0.0089338347315788,-0.1567236334085464,0.062501460313797,standing
1783090373188530000,1.833530029296875,-0.0261995680036954,-0.2016702810749411,0.0585772766530513,0.0034817964769899,-0.1390314251184463,0.0733676999807357,standing
1783090373198574800,1.843574951171875,-0.0008607267488725,-0.2080327287789434,0.0721878688544035,0.0024642026983201,-0.107909195125103,0.0799686089158058,standing
1783090373208618800,1.85361865234375,0.1074627054510638,-0.1530678704693913,0.0901613324403762,-0.0004357907455414,-0.0774709284305572,0.0778420642018318,standing
1783090373218664000,1.863663818359375,0.1749586536295712,-0.0307454860713332,0.0822907451957464,0.0014795546885579,-0.0338845700025558,0.0881586223840713,standing
1783090373228707800,1.873707763671875,0.1581511102841235,-0.0209627085298299,0.0925894363701343,-0.0020392364822328,-0.0081270840018987,0.1056647077202797,standing
1783090373238752000,1.883751953125,0.1434381280651316,-0.1167709608159959,0.0908902312368154,-0.0090031363070011,0.0047082868404686,0.1195501610636711,standing
1783090373248797000,1.893796875,0.04572524773404,-0.1329945119947195,0.0546808537364006,-0.0192393101751804,0.0067763840779662,0.12650828063488,standing
1783090373258840800,1.9038408203125,-0.0011915113395079,-0.1942292443539947,0.0449585011452436,-0.0293782297521829,-0.0069516780786216,0.1316545754671096,standing
1783090373268885800,1.9138857421875,0.0007887209585867,-0.2380242546778172,0.011896774020791,-0.0171161890029907,-0.0176172591745853,0.1300723105669021,standing
1783090373278930000,1.923929931640625,-0.0530546590403653,-0.2177634108070284,-0.0427092609137296,-0.0019138015341013,-0.0157173611223697,0.1160406544804573,standing
1783090373288974800,1.933974853515625,-0.0702179570209235,-0.1876322572417557,-0.0235147311002016,0.0122561324387788,-0.0095142908394336,0.0973290801048278,standing
1783090373299018800,1.944018798828125,0.0009158910022117,-0.1810757482703775,-0.0173655608206987,0.0154322180896997,-0.0042044795118272,0.0765894427895546,standing
1783090373309064000,1.95406396484375,0.0599159413782879,-0.077341233029589,0.0287999780267477,-0.0017579628620296,-0.0100121460855007,0.0652044340968132,standing
1783090373319107800,1.96410791015625,0.0310160466410219,-0.1106331887133419,0.0470598573386669,-0.0190077889710664,-0.0190136302262544,0.0577510520815849,standing
1783090373329151700,1.97415185546875,-0.049162218179088,-0.1976450441468507,0.0431634344220161,-0.0270553305745124,-0.0270784813910722,0.0549296960234642,standing
1783090373339197000,1.984197021484375,-0.0717527836390771,-0.2146104266688227,0.0504442390799522,-0.0232938807457685,-0.0311818774789571,0.0566764660179615,standing
1783090373349240800,1.99424072265625,-0.0493117279186844,-0.2454386956527829,0.0380710797190666,-0.0112399542704224,-0.0215985793620347,0.0554884150624275,standing
1783090373359285800,2.00428564453125,0.0179946525044739,-0.2610360046919435,0.022422844210267,0.0011962086427956,-0.0013188743032515,0.0523818396031856,standing
1783090373369330000,2.014329833984375,0.0932759390632621,-0.2465701108355075,0.0365665203750133,0.0062477653846144,0.0212688110768795,0.0457476489245891,standing
1783090373379375000,2.024375,0.1652021978394128,-0.2226777055293321,0.06005319442451,0.006843514740467,0.0344037860631942,0.0399036109447479,standing
1783090373389418800,2.034418701171875,0.1667966639566235,-0.1844412061154842,0.0628793577611446,0.005515357479453,0.0345611795783042,0.0420533753931522,standing
1783090373399464000,2.0444638671875,0.1355109883276745,-0.1825036621816456,0.0127437462389469,0.0132579654455184,0.0173310600221157,0.0473850257694721,standing
1783090373409507800,2.0545078125,0.0303234612669795,-0.2043451263073831,-0.0386263755142688,0.0303509384393692,-0.0022075665183365,0.0554643869400024,standing
1783090373419551700,2.0645517578125,-0.0697154325925745,-0.285716564701125,-0.043717561173439,0.044677946716547,-0.0139244105666875,0.0578013099730014,standing
1783090373429597000,2.074596923828125,-0.1449181922887452,-0.3561533521044999,0.0286748903423547,0.0272858180105686,-0.0132773779332637,0.0541348047554492,standing
1783090373439640800,2.084640869140625,-0.0888322757937014,-0.363723568163067,0.1327764853298664,-0.0092309145256876,-0.010812621563673,0.0473237670958042,standing
1783090373449685800,2.094685791015625,0.0372129285197705,-0.3247084125269204,0.1791670651048421,-0.0372778289020061,-0.0100343264639377,0.0421093069016933,standing
1783090373459730000,2.10472998046875,0.1291076058250851,-0.2656042624555528,0.1397550921708345,-0.0393297933042049,-0.0336749367415905,0.0422176979482173,standing
1783090373469774800,2.11477490234375,0.1994290962857194,-0.2472447952266782,0.0216214646995067,-0.0067105474881827,-0.0686723068356514,0.0409943014383316,standing
1783090373479818800,2.12481884765625,0.1598818430668674,-0.2185210973065346,-0.0859434224843978,0.0350331701338291,-0.0933853760361671,0.047967791557312,standing
1783090373489864000,2.134864013671875,0.0689601755121722,-0.2778177742753178,-0.088863693845272,0.0592018403112888,-0.1060391515493393,0.0597141347825527,standing
1783090373499908000,2.144908203125,-0.0297219151772558,-0.3272152807813137,-0.0654477469444274,0.066189706325531,-0.1140616610646247,0.0715968906879425,standing
1783090373509951700,2.15495166015625,-0.069993208354339,-0.37334611364156,0.0166074359297752,0.0606187358498573,-0.1112127304077148,0.0732432454824447,standing
1783090373519997000,2.164996826171875,-0.1074722039317712,-0.3901174348961562,0.1100806693971157,0.0492038987576961,-0.1022613123059272,0.073751114308834,standing
1783090373530041000,2.175041015625,-0.1041281724671833,-0.4244048313580453,0.1539350086927413,0.0416312292218208,-0.0855817049741745,0.0544099807739257,standing
1783090373540085800,2.185085693359375,-0.0337734738566912,-0.3650697951402515,0.1492202551305294,0.0281284693628549,-0.0700602680444717,0.0306934677064418,standing
1783090373550130000,2.1951298828125,-0.0564686870012432,-0.3228859463401138,0.1828425387471914,0.0207303892821073,-0.0651216208934784,0.0150921354070305,standing
1783090373560174800,2.2051748046875,-0.0594501322311349,-0.314739830089733,0.1025964511215686,0.0290213432163,-0.0647410601377487,0.0031960618216544,standing
1783090373570218800,2.21521875,-0.0899054214505478,-0.3157382665425539,0.0491436778753995,0.0442541874945163,-0.0545150898396968,-0.0076806917786598,standing
1783090373580263000,2.225262939453125,-0.1412370743568986,-0.3091939594656229,0.0549637623310089,0.052507322281599,-0.0450805760920047,-0.0075565883889794,standing
1783090373590307800,2.235307861328125,-0.1291464399981312,-0.3023358371991664,0.0419762704640626,0.0485303774476051,-0.0280988551676273,-0.0043179849162697,standing
1783090373600351700,2.245351806640625,-0.0803168695732019,-0.2981231879401952,0.0728033704042434,0.0399376899003982,-0.0071866484358906,0.0049697891809046,standing
1783090373610397000,2.25539697265625,-0.0095038510022684,-0.2667076936528086,0.0990782138675451,0.0265166088938713,0.0127543741837143,0.0126063991338014,standing
1783090373620440800,2.26544091796875,0.0853369079586118,-0.2818798360824585,0.0478957236409187,0.0181148685514926,0.0183193162083625,0.0132905645295977,standing
1783090373630485800,2.27548583984375,0.1609300004129298,-0.2468799074370413,-0.0292144040465354,0.0211559440940618,0.0168024823069572,0.0134463505819439,standing
1783090373640530000,2.285530029296875,0.1166938221928663,-0.245229071490094,-0.0702969405412674,0.0378867201507091,0.015203520655632,0.0155491819605231,standing
1783090373650574800,2.295574951171875,-0.0420330421525984,-0.2479283205114305,-0.0384983652204275,0.0477401800453662,0.0231415070593357,0.0273895449936389,standing
1783090373660618800,2.30561865234375,-0.1658721512565389,-0.2536794313840568,0.0565098227292299,0.041764311492443,0.0415961481630802,0.0421059057116508,standing
1783090373670663000,2.315662841796875,-0.2430682949933223,-0.2854380400206893,0.1378098033219575,0.022161217406392,0.0658477321267128,0.0585004650056362,standing
1783090373680707800,2.325707763671875,-0.2575174569106661,-0.3050307023063301,0.180474640572071,0.0031361281871795,0.0825657248497009,0.0717965587973594,standing
1783090373690751700,2.335751708984375,-0.1352309658098965,-0.3196808666884899,0.185327341300249,-0.0009516843128949,0.0941626131534576,0.0784927383065223,standing
1783090373700797000,2.345796875,-0.0136383569911122,-0.2343812220003455,0.1607563791453838,0.0116210989654064,0.0965373516082763,0.0838819146156311,standing
1783090373710840800,2.3558408203125,0.1006432346945628,-0.1617428328994661,0.1134492690473794,0.0280723273754119,0.0864002183079719,0.0929071009159088,standing
1783090373720885800,2.3658857421875,0.1352972542454488,-0.1203655512418597,0.0395575188845396,0.0288576930761337,0.0591110736131668,0.1021357551217079,standing
1783090373730930000,2.375929931640625,0.0582654524912126,-0.1380162126142531,-0.0331155031383037,0.0136097203940153,0.0382082648575305,0.1044355928897857,standing
1783090373740974800,2.385974853515625,-0.0965570065605454,-0.1390307964842766,-0.0704530078858137,-0.0118777956813573,0.0267920922487974,0.1033740565180778,standing
1783090373751018800,2.396018798828125,-0.2254813647732138,-0.1816477029394358,-0.0330734175622463,-0.026388294994831,0.0214023888111114,0.0958104133605957,standing
1783090373761063000,2.40606298828125,-0.2832357259371317,-0.2161581675674766,0.0066582888454198,-0.0182446148246526,0.017011635005474,0.0819955319166183,standing
1783090373771107800,2.41610791015625,-0.2749119332985952,-0.2256510953169316,0.0338508316755294,0.0038796388544142,0.0184408761560916,0.0648581609129905,standing
1783090373781151700,2.42615185546875,-0.1775516292648389,-0.2018689454521983,0.0633259324848651,0.0141064440831542,0.0230976790189743,0.0542180351912975,standing
1783090373791197000,2.436197021484375,-0.1052303432891145,-0.1364812581319361,0.0703957247406244,0.0102703440934419,0.0271510854363441,0.0445331782102584,standing
1783090373801240800,2.44624072265625,-0.0175384149032644,-0.1197320756439119,0.0811322228103876,-0.0005159911233931,0.0387851037085056,0.0340160876512527,standing
1783090373811286000,2.4562861328125,0.0106748858093284,-0.0943112917266786,0.0743798259407281,-0.0175034571439027,0.0505775846540927,0.0242129303514957,standing
1783090373821330000,2.466329833984375,-0.0402455376813188,-0.0772820501882582,0.0704752197176218,-0.0280487760901451,0.0512721352279186,0.0242928229272365,standing
1783090373831374800,2.476374755859375,-0.0543672577425837,-0.1483135886143892,0.1055728365838527,-0.0245874989777803,0.0368206799030303,0.0222626216709613,standing
1783090373841419000,2.4864189453125,-0.0291270910892635,-0.2218319023549556,0.0970101754218339,-0.0170257203280925,0.0066782212816178,0.0222714114934206,standing
1783090373851463000,2.496462890625,-0.0624951990154571,-0.2690896203532815,0.0041769934237003,-0.0189688950777053,-0.0224813017994165,0.0209052748978137,standing
1783090373861507800,2.5065078125,-0.1021516299635171,-0.2827629025273024,-0.0503939701974391,-0.0183435827493667,-0.0384972840547561,0.0202972739934921,standing
1783090373871551700,2.5165517578125,-0.1256460854606703,-0.2531621295116841,-0.0017313538372516,-0.0195336248725652,-0.0450698472559452,0.0226787440478801,standing
1783090373881597000,2.526596923828125,-0.0372366016563028,-0.2518378951705992,0.0540863949745893,-0.0225259512662887,-0.0496787130832672,0.0145406574010849,standing
1783090373891640800,2.536640869140625,-0.0156643829260021,-0.2346494444824755,0.0749625942647457,-0.0280357301235198,-0.0480320043861866,0.0066998503170907,standing
1783090373901686000,2.54668603515625,-0.0672877305216155,-0.2169673650585115,0.070208093214035,-0.0333079919219017,-0.0422263108193874,-0.0034300154075026,standing
1783090373911730000,2.55672998046875,-0.1066801037060096,-0.1929896926216781,0.1040413892328739,-0.0350686982274055,-0.0286977589130401,-0.010016543790698,standing
1783090373921773800,2.56677392578125,-0.1085920565408654,-0.2233890686690807,0.1226069734930992,-0.0380780696868896,-0.018813170492649,-0.0145577676594257,standing
1783090373931819000,2.576819091796875,-0.1472257203124463,-0.2602362326163798,0.1149497367382049,-0.0433298870921134,-0.0087426677346229,-0.0174451824277639,standing
1783090373941863000,2.58686279296875,-0.139613510009367,-0.2517500707566737,0.1081499935954809,-0.0453440360724926,-0.0025934292934834,-0.0157828368246555,standing
1783090373951907800,2.596907958984375,-0.0708996739410795,-0.258486466339603,0.067390113183856,-0.0435404703021049,-0.0029414151795208,-0.0128807770088315,standing
1783090373961952000,2.606951904296875,-0.0623920126356184,-0.1915735422134399,0.024554595541954,-0.0444060005247592,-0.0039142682217061,-0.0059187421575188,standing
1783090373971996700,2.61699658203125,-0.1002912794517353,-0.1970025084596127,0.0359480962157249,-0.058494571596384,-0.0158658102154731,-0.0015295837074518,standing
1783090373982040800,2.627040771484375,-0.1479595327460207,-0.216099057791382,0.07579378439188,-0.0845762342214584,-0.0321156196296215,0.0010355731938034,standing
1783090373992086000,2.6370859375,-0.2394557305193506,-0.2412248773500323,0.0898696560174226,-0.1064367070794105,-0.0541222728788852,5.3294934332e-06,standing
1783090374002130000,2.6471298828125,-0.32350846215263,-0.2670629368312657,0.0406231022894382,-0.1047282889485359,-0.0778643563389778,-0.0083857588469982,standing
1783090374012173800,2.657173828125,-0.3167460553456098,-0.2538981156360357,-0.0157353292703628,-0.0848382487893104,-0.0987748056650161,-0.018130462616682,standing
1783090374022219000,2.667218994140625,-0.2613138717852533,-0.2095208484448492,-0.0568120205461978,-0.0712143182754516,-0.1160813570022583,-0.0250730570405721,standing
1783090374032263000,2.677262939453125,-0.1740425068990327,-0.1808365326870232,-0.0989601404458284,-0.0751334205269813,-0.1358837187290191,-0.0281356945633888,standing
1783090374042307800,2.687307861328125,-0.0906907448756508,-0.1651798216108232,-0.1341641402959823,-0.0759126618504524,-0.1509542763233184,-0.0283167921006679,standing
1783090374052352000,2.69735205078125,-0.0462594276759773,-0.1603181338585913,-0.1568278075248003,-0.064959704875946,-0.1626171022653579,-0.0252893082797527,standing
1783090374062396700,2.707396728515625,-0.0936138292481191,-0.170667020850256,-0.1453577344834804,-0.0456967949867248,-0.1507194191217422,-0.0169866383075714,standing
1783090374072440800,2.71744091796875,-0.1249831645725294,-0.2201820893213152,-0.0276817876517772,-0.0313925147056579,-0.1249693632125854,-0.0104866595938801,standing
1783090374082486000,2.727486083984375,-0.1199943981082178,-0.2557891900796443,0.1339239017993211,-0.0361427962779998,-0.1201839298009872,0.0029852073639631,standing
1783090374092529700,2.73752978515625,-0.0419570543069392,-0.2522361007079482,0.2320335628956556,-0.0583840869367122,-0.1332166790962219,0.0109958602115511,standing
1783090374102573800,2.74757373046875,0.0328928368309512,-0.2486180563412606,0.1756540885478258,-0.0797224044799804,-0.1515187174081802,0.0160579960793256,standing
1783090374112619000,2.757618896484375,0.0572603488355875,-0.1876522771164774,0.1125993742197752,-0.0841161608695983,-0.1653447896242141,0.0279797632247209,standing
1783090374122662700,2.76766259765625,-0.0083488357482478,-0.1291175244309008,0.095603815755248,-0.07652348279953,-0.1750887632369995,0.0426343381404876,standing
1783090374132707800,2.777707763671875,-0.0598054302085191,-0.1204489186763763,0.0843178671091794,-0.0722138434648513,-0.1719219982624054,0.05192431807518,standing
1783090374142752000,2.787751953125,-0.1069562902988865,-0.08960881312415,0.0883335324913263,-0.0710630863904953,-0.1526172757148742,0.0536758825182914,standing
1783090374152797000,2.797796875,-0.1394036118520423,-0.1128270454958081,0.128607090690732,-0.0718819200992584,-0.1354561597108841,0.0546113140881061,standing
1783090374162840800,2.8078408203125,-0.1154590744998306,-0.0824551419772207,0.1415466517627239,-0.0711042732000351,-0.1174153760075569,0.0484913699328899,standing
1783090374172886000,2.817885986328125,-0.0944429552823305,-0.0579861788921058,0.1030851114213466,-0.0677561536431312,-0.1064609214663505,0.0464853458106517,standing
1783090374182929700,2.8279296875,-0.0831823968058452,-0.0516980385333299,0.0298924494385719,-0.0577799528837204,-0.0869663134217262,0.0478283800184726,standing
1783090374192973800,2.837973876953125,-0.1170836800269782,-0.0814168849706649,-0.0059761518001556,-0.0433042123913764,-0.0721670091152191,0.0499099716544151,standing
1783090374203019000,2.84801904296875,-0.0354700303751975,-0.1133862868137657,-0.0003396072179079,-0.0361000970005989,-0.0616885386407375,0.0500327423214912,standing
1783090374213062700,2.858062744140625,0.0177677849460393,-0.1210745032288134,-0.0235036251842975,-0.0360209122300148,-0.0542571432888507,0.0499010533094406,standing
1783090374223107800,2.86810791015625,0.0487892384145408,-0.096656685809046,-0.0078927990764379,-0.0365018807351589,-0.0477923192083835,0.0499830767512321,standing
1783090374233152000,2.878152099609375,0.0456340623192489,-0.1307870650783181,0.029621815803647,-0.0330824181437492,-0.0341526716947555,0.0464435368776321,standing
1783090374243197000,2.888197021484375,-0.003233173234947,-0.2157144423879683,0.0371557184398174,-0.033369243144989,-0.0193425677716732,0.0340718179941177,standing
1783090374253240800,2.89824072265625,-0.0641547479918226,-0.2851553506217896,0.0477098456799983,-0.0352205745875835,-0.0107531137764453,0.018492192029953,standing
1783090374263285000,2.908284912109375,-0.0434776880029588,-0.271802094182372,0.0911263780802488,-0.0440316461026668,-0.0174014288932085,0.0043255053460597,standing
1783090374273330000,2.918329833984375,-0.003766220665723,-0.2049285522185266,0.1183703588366508,-0.0497410669922828,-0.0323731489479541,-0.0037002619355916,standing
1783090374283373800,2.928373779296875,-0.0158263320220634,-0.2301628005877137,0.0349514863938093,-0.0419603735208511,-0.0493694432079792,-0.0098119499161839,standing
1783090374293419000,2.9384189453125,-0.0398478801332414,-0.2681416719786822,-0.0419096349686384,-0.0264398362487554,-0.0528378300368785,-0.0165880937129259,standing
1783090374303463000,2.948462890625,-0.0061383566245436,-0.2918891889214515,-0.0063543374627828,-0.0117594264447689,-0.0534460991621017,-0.0231727603822946,standing
1783090374313507800,2.9585078125,0.0168794578041881,-0.3268839299350977,0.0257628022879362,-0.0031366725452244,-0.0518809221684932,-0.024673257023096,standing
1783090374323552000,2.968552001953125,0.0040912513690069,-0.3695410222701728,0.0494768553525209,-0.0011518185492604,-0.0407505072653293,-0.0286789201200008,standing
1783090374333595600,2.978595703125,-0.0179513248194009,-0.3705646662294864,0.0605067834109067,-0.0018187222303822,-0.0288886353373527,-0.0306972600519657,standing
1783090374343640800,2.988640869140625,-0.0217576217671856,-0.3723636784754693,0.0535690931022167,0.0128260012716054,-0.0182841904461383,-0.0302101671695709,standing
1783090374353685000,2.99868505859375,0.0157964483404532,-0.3796246093891561,0.054584992146492,0.041895255446434,-0.0183573979884386,-0.036364410072565,standing
1783090374363730000,3.00872998046875,0.0129877110626548,-0.3794245567724108,0.0452910941004753,0.0851575136184692,-0.0219476055353879,-0.0392195843160152,standing
1783090374373773800,3.01877392578125,0.0224443619223311,-0.3795928990766405,0.04985153388381,0.120416447520256,-0.0160832069814205,-0.0372503623366355,standing
1783090374383818800,3.02881884765625,0.034470351813361,-0.3696725396953523,0.1049836385190486,0.1321197003126144,-0.019139714539051,-0.0300624892115592,standing
1783090374393863000,3.03886279296875,0.0371152768315747,-0.3826028945475817,0.0693079295039176,0.1248181760311126,-0.0173380095511674,-0.0244699269533157,standing
1783090374403907800,3.048907958984375,0.0598882861863821,-0.377311217880249,0.0400222137868404,0.1067046895623207,-0.0199718754738569,-0.0185156315565109,standing
1783090374413952000,3.058951904296875,0.1009983682751655,-0.4194222206398844,0.0028466216027736,0.0929361507296562,-0.0287053696811199,-0.0152778895571827,standing
1783090374423996000,3.068995849609375,0.0978864833323285,-0.3940760363288224,-0.0502127684116363,0.0803460553288459,-0.0224440097808837,-0.0121662514284253,standing
1783090374434040800,3.079040771484375,0.0576688200386241,-0.3611636545471847,-0.0279021524041891,0.0559891685843467,-0.0127578303217887,-0.0079219006001949,standing
1783090374444085000,3.0890849609375,0.0033353549677878,-0.3490044301979244,0.0252419932842254,0.0270581841468811,-0.0019693649373948,-0.0050073373131453,standing
1783090374454130000,3.0991298828125,-0.0470295352656394,-0.3326438086360693,0.0742518156468868,0.0105076627805829,0.0070209372788667,-0.0011938910465687,standing
1783090374464173800,3.109173828125,-0.0679425229022279,-0.2975961683914065,0.0977192004740238,0.0344593375921249,0.004149517044425,0.0049169985577464,standing
1783090374474218800,3.11921875,-0.073630140084587,-0.3181500769246369,0.0498737457156181,0.0822719261050224,0.0165805034339427,0.005758348852396,standing
1783090374484263000,3.129262939453125,-0.0166322781100869,-0.3415199196614324,0.0804249513238668,0.1228427812457084,0.0188889298588037,0.0063021667301654,standing
1783090374494307800,3.139307861328125,-0.0161511435296386,-0.3391068671703338,0.0315735343933105,0.1342888623476028,0.033363364636898,0.0017903809202834,standing
1783090374504351700,3.149351806640625,-0.0421656920889392,-0.3270410201929509,0.0964367594480514,0.1114546433091163,0.0482254028320312,-0.0052246516570448,standing
1783090374514396000,3.15939599609375,-0.0416351288761943,-0.2995273556496948,0.1399766259670257,0.062174417078495,0.0642646700143814,-0.0149919996038079,standing
1783090374524440800,3.16944091796875,-0.0236108484184369,-0.2916005812384188,0.1346498779863119,0.0162820275872945,0.0719420313835144,-0.0185726210474967,standing
1783090374534484700,3.179484619140625,-0.0052030120031908,-0.2947344953499734,0.080763974019885,-0.0024404940195381,0.0760035067796707,-0.022142382338643,standing
1783090374544530000,3.189530029296875,0.0175366796039044,-0.2721503961633891,0.0325099384605884,0.0029084649868309,0.0764535814523696,-0.0246481504291296,standing
1783090374554573800,3.19957373046875,0.0142065122678875,-0.2532991998948156,0.0160410342186689,0.0083639230579137,0.0721723139286041,-0.0282315090298652,standing
1783090374564618800,3.20961865234375,-0.0212602667042985,-0.2417994623675942,0.0109685532599687,0.0124558694660663,0.0696489736437797,-0.0264085754752159,standing
1783090374574663000,3.219662841796875,-0.0793634961048141,-0.2365665301501751,0.0271726690858602,0.0161193050444126,0.0705047994852066,-0.02177813090384,standing
1783090374584706300,3.229706298828125,-0.1013246045548468,-0.2184627181828022,0.0457207176893949,0.0235663019120693,0.0825635939836502,-0.0207357704639434,standing
1783090374594751200,3.239751220703125,-0.1217986527848988,-0.2094998056568205,0.0965834744423627,0.0354167893528938,0.0856748446822166,-0.0195484645664691,standing
1783090374604795100,3.249795166015625,-0.1032669342616573,-0.2127197175513953,0.0434177014440298,0.0415652282536029,0.087108165025711,-0.02243666164577,standing
1783090374614840300,3.25984033203125,-0.0551866843666881,-0.1849064855396747,0.004032031995058,0.0390130393207073,0.0857976973056793,-0.0252726674079895,standing
1783090374624884200,3.26988427734375,-0.0357201326787471,-0.1843508974835276,0.0181219321459531,0.0301135517656803,0.0800388753414154,-0.0183380618691444,standing
1783090374634929200,3.27992919921875,-0.0451988492397591,-0.2164530588608235,-0.0087982234835624,0.0184208489954471,0.072548508644104,-0.0148862013593316,standing
1783090374644973300,3.289973388671875,-0.0603236819289624,-0.2337117252409458,-0.0087771806955337,0.0150695266202092,0.0651835352182388,-0.011015030555427,standing
1783090374655018200,3.300018310546875,-0.0484324243335053,-0.1757753768399357,-0.0033510639935731,0.0229215063154697,0.061300192028284,-0.0042551304213702,standing
1783090374665062100,3.310062255859375,-0.059581521792151,-0.129889750912413,0.0140735335379838,0.0240496210753917,0.0556723996996879,0.0049082739278674,standing
1783090374675106300,3.320106201171875,-0.105036099358648,-0.0805562495533376,0.0130827689349651,0.032447587698698,0.041269913315773,0.0165237188339233,standing
1783090374685151200,3.330151123046875,-0.1304378497818484,-0.0761503427445888,0.0097048169344663,0.0553774051368236,0.035860501229763,0.0284674633294343,standing
1783090374695195100,3.340195068359375,-0.1021088868003338,-0.1285557258296757,0.0853507172882556,0.0622318498790264,0.0313713997602462,0.0375875905156135,standing
1783090374705240300,3.350240234375,-0.0249918909806758,-0.1792992401171475,0.0922854849874973,0.0588770695030689,0.0237156096845865,0.0452098250389099,standing
1783090374715284200,3.3602841796875,0.0503060727182775,-0.1795564297486096,0.0750625475078821,0.0533758699893951,0.029247298836708,0.0558819063007831,standing
1783090374725329200,3.3703291015625,0.0730348410725593,-0.1781293195549398,0.0877303059011697,0.046846330165863,0.0351725667715072,0.0627121180295944,standing
1783090374735373300,3.380373291015625,0.0491570488136261,-0.1711594074770808,0.0886281315237283,0.0357071161270141,0.0321415103971958,0.0731351971626281,standing
1783090374745417500,3.39041748046875,-0.0023650851635262,-0.1537226811163127,0.0615396335899829,0.0226389858871698,0.0272215865552425,0.0821332186460495,standing
1783090374755462100,3.400462158203125,-0.0128150579094886,-0.1749047314852476,0.0487999790042638,0.0116260237991809,0.0195909440517425,0.0812040418386459,standing
1783090374765506300,3.41050634765625,-0.0445788541778922,-0.149857822381705,0.0140782097131013,0.0027001730632036,0.0105641577392816,0.0768495053052902,standing
1783090374775551200,3.42055126953125,-0.0243780699312686,-0.1662964776158332,0.0248988789349794,-0.0003181300126016,0.0063616149127483,0.0704767629504203,standing
1783090374785595100,3.43059521484375,0.0144738214345648,-0.1527924145288765,0.0340606750339269,0.001561262877658,0.0044523947872221,0.06176183745265,standing
1783090374795640300,3.440640380859375,-0.0274308450980111,-0.1146003387786448,0.0140519062280654,0.0024397955276072,0.0068831383250653,0.0476539433002471,standing
1783090374805684200,3.450684326171875,-0.0559464897580444,-0.1176791617020964,0.0212999776601791,0.0005292438436299,0.0160577278584241,0.036296360194683,standing
1783090374815729200,3.460729248046875,-0.1039517381880432,-0.1360410400837659,0.0476490554034709,-0.0091937221586704,0.0190256647765636,0.0243473462760448,standing
1783090374825773300,3.470773193359375,-0.1159439354073256,-0.1539912689246237,0.0559977815538644,-0.0109753776341676,0.0266700033098459,0.0102970423176884,standing
1783090374835817200,3.480817138671875,-0.093181958903186,-0.1859869011875242,0.0806897397398948,-0.011488183401525,0.0406982079148292,-0.0054871728643774,standing
1783090374845862100,3.490862060546875,-0.095669318739511,-0.1451441647980362,0.121555418613553,-0.0138285690918564,0.0483231022953987,-0.0136793237179517,standing
1783090374855906300,3.50090625,-0.0602399126356467,-0.1067556166276335,0.120822428163886,-0.0115627916529774,0.0460096187889575,-0.0123037351295351,standing
1783090374865951200,3.510951171875,-0.0089735069852322,-0.1271645637322217,0.0840636000871658,-0.0016747409244999,0.0293789729475975,-0.0075294859707355,standing
1783090374875995100,3.5209951171875,0.0634045872116461,-0.145907258125022,0.0096913729310035,0.018106635659933,0.0005038762465119,-0.0078001278452575,standing
1783090374886040300,3.531040283203125,0.0526744458174332,-0.1591704251281917,-0.0768441702276468,0.0325433686375618,-0.0221606902778148,-0.0065750735811889,standing
1783090374896084200,3.541084228515625,0.0148369191259145,-0.214457354998961,-0.0619061288148164,0.0338132083415985,-0.0308600552380085,5.98586630076e-05,standing
1783090374906128100,3.551128173828125,0.02307473224774,-0.2602424431614578,0.0583329465031623,0.0224281959235668,-0.0219291448593139,0.0032194328960031,standing
1783090374916173300,3.56117333984375,-0.0283312645364552,-0.2784968425806611,0.1148608894109725,0.0051873759366571,-0.0099663417786359,-0.0021046916954219,standing
1783090374926217200,3.57121728515625,-0.0716102516295388,-0.2785823289070278,0.1263642802000045,-0.0071683600544929,0.0052237967029213,-0.0062038288451731,standing
1783090374936262100,3.58126220703125,-0.1057868446607142,-0.2542068893242627,0.1113473283320665,-0.0088694524019956,0.0148670654743909,-0.007700459100306,standing
1783090374946306300,3.591306396484375,-0.1207085925258696,-0.260556185285747,0.0814011028796434,-0.006043838802725,0.0177392847836017,-0.0060458369553089,standing
1783090374956351200,3.601351318359375,-0.1313156189970672,-0.2827496777195483,0.051895606932044,-0.0091271083801984,0.0090119931846857,-0.0004239729605615,standing
1783090374966395100,3.61139501953125,-0.0955426601525396,-0.3212571030292659,0.0236672913134098,-0.0091020744293928,-0.0145330131053924,0.0031100418418645,standing
1783090374976440000,3.621440185546875,-0.0334458310712128,-0.3440454195510596,-0.0124427174657583,-0.0083798766136169,-0.0390221513807773,0.0053659407421946,standing
1783090374986484200,3.631484130859375,0.0520665430521592,-0.3076557901129126,-0.0177338096112012,0.0025372202508151,-0.0606294386088848,0.0027967893984168,standing
1783090374996528000,3.641528076171875,0.1264073521567508,-0.2414307751856744,-0.0337549700856208,0.0107256444171071,-0.0714302361011505,-0.0027919877320528,standing
1783090375006573300,3.6515732421875,0.0820427983166649,-0.220850197841227,-0.0589765051037073,0.0212366096675395,-0.0688941031694412,-0.0042183771729469,standing
1783090375016617200,3.6616171875,-0.020543387139216,-0.2026424140427261,-0.0184954416334629,0.0309688635170459,-0.051904734224081,-0.0003898167051374,standing
1783090375026662400,3.671662353515625,-0.0581337341366335,-0.2142621977530419,0.0948065278977155,0.0281781367957592,-0.039605725556612,0.0069860741496086,standing
1783090375036706300,3.681706298828125,-0.0660841816844418,-0.2133289354909211,0.1459703134238719,0.0191104337573051,-0.026988161727786,0.0061303996481001,standing
1783090375046751200,3.691751220703125,-0.0456506115952506,-0.1740642620731145,0.1577338164538144,0.0132389618083834,-0.018876438960433,0.0039961421862244,standing
1783090375056795400,3.70179541015625,-0.0119864615982398,-0.1554988239433616,0.109639939892292,0.0152497394010424,-0.0152497077360749,0.0041631218045949,standing
1783090375066839300,3.71183935546875,0.0116698333971202,-0.1516534736268222,0.0659112728029489,0.018422894179821,-0.0176247172057628,0.0022525698877871,standing
1783090375076884200,3.72188427734375,0.0264207182073965,-0.1529506738305091,0.0210042095839977,0.0193416811525821,-0.021169040352106,-0.000989694148302,standing
1783090375086928100,3.73192822265625,0.0282541807122528,-0.155858012644574,0.0066050973534584,0.0136987110599875,-0.018886711448431,-0.0041740359738469,standing
1783090375096973000,3.74197314453125,-0.001688866402395,-0.159391301337257,0.0154711253762245,2.95552890747e-05,-0.005988186225295,-0.0115264281630516,standing
1783090375107017200,3.752017333984375,-0.0236602770507335,-0.1213604805633425,0.0510194086194038,-0.0126652009785175,0.0090341726318001,-0.0180069655179977,standing
1783090375117062400,3.7620625,-0.0270078704455867,-0.1301193949498236,0.0933896468371152,-0.0212045945227146,0.0201777890324592,-0.0240028668195009,standing
1783090375127106300,3.772106201171875,-0.0242608367597684,-0.1425256528627127,0.086662968930602,-0.0199555717408657,0.0243397764861583,-0.0287936273962259,standing
1783090375137151200,3.782151123046875,-0.0598275689750909,-0.1815373013675212,0.0365899012506008,-0.0165113024413585,0.0287059545516967,-0.0327618718147277,standing
1783090375147195400,3.7921953125,-0.0878140751944854,-0.2138729061745107,0.0396674089998006,-0.0187901705503463,0.0341521203517913,-0.0316590555012226,standing
1783090375157239300,3.8022392578125,-0.0832070197904482,-0.2365420532960444,0.0510895512461662,-0.0207444764673709,0.0292569622397422,-0.0260084979236125,standing
1783090375167284200,3.8122841796875,-0.026087138871476,-0.236533943054825,0.033818098449707,-0.0073929848149418,0.0238808393478393,-0.0196688435971736,standing
1783090375177328400,3.822328369140625,0.0101916871359571,-0.2326645542755722,0.0502203671962022,0.01100221183151,0.0122971916571259,-0.0140098202973604,standing
1783090375187373000,3.832373046875,0.0661150517467409,-0.2324753153137862,0.0520925908088684,0.021130746230483,0.0017920867539942,-0.0155001264065504,standing
1783090375197417200,3.842417236328125,0.0789349319618195,-0.2464641662430018,0.0380728332847356,0.0127725498750805,-0.0038250898942351,-0.0246360339224338,standing
1783090375207462400,3.85246240234375,0.0525078570788726,-0.2487997695837169,0.014744564667344,-0.0095418095588684,-0.0032133618369698,-0.032107800245285,standing
1783090375217506000,3.862506103515625,0.0331278876958414,-0.2731063086487352,0.0047942485392093,-0.0313090160489082,0.0037368414923548,-0.0413847230374813,standing
1783090375227550200,3.87255029296875,0.0070785235514864,-0.2859270656466484,0.0309025032639503,-0.0397629551589489,0.0075060133822262,-0.0435187146067619,standing
1783090375237595400,3.882595458984375,-0.0162247202225029,-0.2653238380789756,0.0545855766683816,-0.0384181179106235,0.0046998765319585,-0.0419721454381942,standing
1783090375247639300,3.892639404296875,-0.0258589561387896,-0.2850627769675106,0.0456909070730209,-0.0301918759942054,0.0019637448713183,-0.0428621768951416,standing
1783090375257684200,3.902684326171875,-0.0218023742243647,-0.2770726549964398,0.0644447073817253,-0.0162677019834518,-0.0016373051330447,-0.0477561391890049,standing
1783090375267728400,3.912728271484375,-0.0017912673309445,-0.2266905213672667,0.0500415034979581,0.0111069306731224,-0.0037326803430914,-0.0513953454792499,standing
1783090375277773000,3.92277294921875,-0.0282257583353668,-0.1607208694405853,0.0365770417690277,0.0396583154797554,0.0079818069934844,-0.0561239197850227,standing
1783090375287817200,3.932817138671875,-0.063887329227291,-0.1193492138061672,0.0876753608435392,0.0393659025430679,0.0238957908004522,-0.0579404607415199,standing
1783090375297861400,3.942861328125,-0.089595661381632,-0.0892941942170262,0.1036421607822179,0.0116354208439588,0.0343622416257858,-0.0519209839403629,standing
1783090375307906000,3.952906005859375,-0.1312330187475308,-0.1277487933609634,0.0913040727347135,-0.021418934687972,0.0349430739879608,-0.0388651005923748,standing
1783090375317950200,3.9629501953125,-0.1298270609397441,-0.1556012614045292,0.0606967530250549,-0.0383002683520317,0.0222968682646751,-0.0224717482924461,standing
1783090375327995400,3.972995361328125,-0.0294232610242441,-0.16213650839217,0.0118961894989013,-0.0287650823593139,0.0094974497333168,-0.0099791279062628,standing
1783090375338039000,3.9830390625,0.005057867911458,-0.1316061994414776,-0.0132937813371419,-0.0093150492757558,-0.0055719399824738,0.0056890491396188,standing
1783090375348084200,3.993084228515625,0.0445505048662424,-0.1257910103566944,-0.011574117937684,-0.0038584982976317,-0.0071682389825582,0.0166354402899742,standing
1783090375360011300,4.00501123046875,0.0547831450670957,-0.1526047830022871,0.0258487270057201,-0.0160374008119106,-0.0052608828991651,0.0245687309652566,standing
1783090375370055200,4.01505517578125,0.0385888199828565,-0.1621072092324495,0.0362093775004148,-0.028271198272705,-0.001843393780291,0.0302479863166809,standing
1783090375380100400,4.025100341796875,-0.0034914588449522,-0.1557244493927806,0.0462204839050769,-0.0278425961732864,0.0045363567769527,0.0409666709601879,standing
1783090375390144300,4.035144287109375,-0.0787156266553327,-0.1939784113980829,0.1025233858853578,-0.0244172364473342,0.0116283539682626,0.0438226461410522,standing
1783090375400189200,4.045189208984375,-0.1497568096926435,-0.1775303307484835,0.1499076528728008,-0.0250276867300272,0.0305964183062315,0.0443277843296527,standing
1783090375410233300,4.0552333984375,-0.1758841709766536,-0.1875705171171575,0.1614466994971037,-0.0286940596997737,0.059703703969717,0.0401908308267593,standing
1783090375420277200,4.06527734375,-0.1464512653412297,-0.181875812606886,0.1815577596336603,-0.0353040806949138,0.0852410644292831,0.0303457267582416,standing
1783090375430322200,4.075322265625,-0.1126270659442991,-0.1549702700246125,0.1401362004429102,-0.041984885931015,0.0994610041379928,0.0256921183317899,standing
1783090375440366300,4.085366455078125,-0.0760629201894626,-0.1855240329161286,0.070551207563281,-0.0409279577434062,0.0930102989077568,0.0234922114759683,standing
1783090375450411300,4.095411376953125,-0.0312927812231704,-0.2388565407834947,-0.0179003983497619,-0.0345209240913391,0.0720858424901962,0.0174492336809635,standing
1783090375460455200,4.105455078125,-0.0850255769871175,-0.2533491034511476,-0.0542553218007087,-0.0250009391456842,0.0542763881385326,0.0161219127476215,standing
1783090375470500400,4.115500244140625,-0.1244543914580717,-0.3132657389491796,-0.0558662641286849,-0.0225223358720541,0.042186439037323,0.0217265337705612,standing
1783090375480544300,4.125544189453125,-0.0959212294076569,-0.3388994349647313,-0.0126519763022661,-0.02928152307868,0.0332981497049331,0.0276833642274141,standing
1783090375490589200,4.135589111328125,-0.0791326099583879,-0.3258336902298033,0.0153314246445894,-0.0375493057072162,0.0280011240392923,0.0247291196137666,standing
1783090375500633300,4.14563330078125,-0.0411044560655951,-0.3192238436359912,0.0300567000895738,-0.0430153422057628,0.026186529546976,0.0173704028129577,standing
1783090375510677200,4.15567724609375,0.0069409599780105,-0.2976714255847036,0.0287567234069108,-0.0377316325902938,0.0231766235083341,0.0088088735938072,standing
1783090375520722200,4.16572216796875,-0.0180879750774241,-0.2649095581896603,0.0499935727030038,-0.0247374549508094,0.0201874896883964,0.0077964751981198,standing
1783090375530766300,4.175766357421875,-0.0579215161580592,-0.2775230291124433,0.0873702404171228,-0.0156470220535993,0.0155618451535701,0.0096412468701601,standing
1783090375540811300,4.185811279296875,-0.0805367411352694,-0.3097559772625565,0.10831950494349,-0.0176983531564474,0.0085074743255972,0.0078219026327133,standing
1783090375550855200,4.195855224609375,-0.0871479394359514,-0.3480703642182052,0.06482756921947,-0.0292623303830623,0.0051510925404727,0.0062080267816782,standing
1783090375560900000,4.205900146484375,-0.0482118769180029,-0.3550545240171253,0.0461807364165782,-0.0392742231488227,0.007809271570295,0.0023087623994797,standing
1783090375570944300,4.2159443359375,0.0113107542937621,-0.2887488450691103,0.0368950216770172,-0.0434926711022853,0.0092351278290152,0.0044856304302811,standing
1783090375580988400,4.225988525390625,0.0428096708145923,-0.2355555995419621,0.0544277557581663,-0.0314659662544727,0.0022080726921558,0.0093395728617906,standing
1783090375591033300,4.236033447265625,0.0447998399848118,-0.2156926689475774,0.0050590369552373,-0.0134688559919595,-0.0132057704031467,0.0176377166062593,standing
1783090375601077200,4.2460771484375,0.031337003957387,-0.2305959313079714,-0.0197322899520397,0.0054162833839654,-0.028408121317625,0.021135713905096,standing
1783090375611122400,4.256122314453125,-0.0527012972917407,-0.2532603291891515,-0.0138467390447854,0.0163253881037235,-0.0345847904682159,0.0256210081279277,standing
1783090375621166600,4.26616650390625,-0.1139927465406246,-0.2917256689228117,-0.0065898997843265,0.0115404371172189,-0.030149333178997,0.0284023508429527,standing
1783090375631211300,4.276211181640625,-0.1214323402231559,-0.3032124008379876,0.029787820020318,0.0009442518930882,-0.0155743863433599,0.0251980349421501,standing
1783090375641255400,4.28625537109375,-0.1321005040307529,-0.2789204748202115,0.0893827492833137,-0.0190053507685661,0.0031328755430877,0.0237502716481685,standing
1783090375651300400,4.29630029296875,-0.0993773246782831,-0.272563141682744,0.1250520285576581,-0.0273602195084095,0.0157796945422887,0.0209867097437381,standing
1783090375661344300,4.30634423828125,-0.0688255893470719,-0.2514183545842766,0.0957861865848302,-0.0216931495815515,0.0222792513668537,0.0241407603025436,standing
1783090375671388400,4.316388427734375,-0.0706625224506482,-0.2506021428305655,0.0651829585283994,-0.0043202848173677,0.0236505139619112,0.0232315566390752,standing
1783090375681433300,4.326433349609375,-0.0501613122190348,-0.2382369475804269,0.0253635738372802,0.0140927303582429,0.0166658423840999,0.0229600425809621,standing
1783090375691477200,4.336477294921875,-0.0235483776414766,-0.2706044818956404,-0.0174281046628952,0.0305790305137634,0.0011468031443655,0.0265883337706327,standing
1783090375701522400,4.3465224609375,0.0323276406962424,-0.30187684138529,-0.0080336688518524,0.0389120914041996,-0.005526129156351,0.0264654997736215,standing
1783090375711566300,4.35656640625,0.0199742637480609,-0.3267480285957455,0.0199286893069744,0.0310160871595144,0.0005418830551207,0.0269480645656585,standing
1783090375721611300,4.366611328125,-0.0035192966999486,-0.3622027152713388,0.0401975703537464,0.0001109051518142,0.0066566932946443,0.0188825484365224,standing
1783090375731655400,4.376655517578125,-0.0282912795859389,-0.4049817534856498,0.0485644166827201,-0.0263928733766078,0.0042097805999219,0.0112355481833219,standing
1783090375741699600,4.386699462890625,-0.0308845474821515,-0.2818867772798985,0.0161100078016519,-0.0235396511852741,0.0180530436336994,-0.0026369919069111,standing
1783090375751744300,4.396744140625,-0.0152714015530422,-0.2120089389335364,0.0552612839728593,0.0003180112689733,0.0362107455730438,-0.0185733474791049,standing
1783090375761788400,4.406788330078125,-0.03749696962554,-0.198015631024912,0.1059369937211275,0.0196949932724237,0.048017181456089,-0.0254857148975133,standing
1783090375771833300,4.416833251953125,-0.0821582961888052,-0.2253467786081135,0.0746224025249481,0.0214534793049097,0.0507850050926208,-0.0332565531134605,standing
1783090375781877200,4.426877197265625,-0.0534415029334835,-0.2647994488786905,0.0399216760218143,0.0051943538710474,0.0483872108161449,-0.0454799309372901,standing
1783090375791922400,4.43692236328125,-0.061355289999023,-0.2685251183383166,0.0181786307692527,-0.0113028632476925,0.0539518855512142,-0.0584908053278923,standing
1783090375801966300,4.44696630859375,-0.1003342235443182,-0.2065306536529213,0.0317529826134443,-0.0212308205664157,0.0598625056445598,-0.0653301328420639,standing
1783090375812010200,4.45701025390625,-0.0480177973843179,-0.2017175542827695,0.0736608640164136,-0.0243318062275648,0.0355755425989627,-0.0677134022116661,standing
1783090375822055400,4.467055419921875,0.0745904364841058,-0.2343476119916886,-0.0026747721672058,-0.0116094965487718,0.0041550253517925,-0.0638437569141388,standing
1783090375832099300,4.477099365234375,0.0789016690130345,-0.2225616048689931,-0.0751104783028364,0.0120633412152528,-0.0197183489799499,-0.0587227642536163,standing
1783090375842144300,4.487144287109375,0.0478315906298346,-0.1873931147236376,-0.0382850147306919,0.024035595357418,-0.0322679914534091,-0.0520257130265235,standing
1783090375852188400,4.4971884765625,0.064903118673712,-0.1887937022365629,-0.0001326864689588,0.0132694998756051,-0.0312709026038646,-0.0510629825294017,standing
1783090375862233300,4.5072333984375,0.034253731654305,-0.1865771952308714,0.0514776737809181,-0.0049855425022542,-0.0195696614682674,-0.0471070557832717,standing
1783090375872277200,4.51727734375,0.0086375347628258,-0.2009941353790462,0.0852595318734645,-0.0198244098573923,-0.0071449493989348,-0.0466979928314685,standing
1783090375882321400,4.5273212890625,-0.0285084294679574,-0.205988874926418,0.0992255133837461,-0.022529961541295,0.013661946170032,-0.0511744320392608,standing
1783090375892366300,4.537366455078125,-0.048843708548136,-0.2266764928419143,0.1300099432259798,-0.0214122328907251,0.0343935899436473,-0.0589708387851715,standing
1783090375902410200,4.54741015625,-0.0226807096951641,-0.2517115653771907,0.1402116037666797,-0.0204655230045318,0.0521265901625156,-0.0621706917881965,standing
1783090375912455400,4.557455322265625,-0.0353538201170042,-0.2375172550037503,0.104337741830945,-0.0229641012847423,0.0569807328283786,-0.061795987188816,standing
1783090375922499300,4.567499267578125,-0.045677079477068,-0.2131447380304336,0.0655979690700769,-0.0230019204318523,0.0519141443073749,-0.0542828068137168,standing
1783090375932544500,4.57754443359375,-0.0063487845048308,-0.2135140097342431,0.0276578222543001,-0.0076147089712321,0.0292714145034551,-0.0436661168932914,standing
1783090375942588400,4.58758837890625,-0.0007748933626338,-0.2200755602069199,-0.0154880765110254,0.0142411440610885,0.0118733625859022,-0.0319411493837833,standing
1783090375952633300,4.59763330078125,-0.0018730273302644,-0.2430046734388917,-0.0421276616334915,0.0341192446649074,-0.0111251641064882,-0.0269019175320863,standing
1783090375962677500,4.607677490234375,0.0010972389184869,-0.2608186356142163,-0.0089531217843294,0.0415173284709453,-0.0196133442223072,-0.0264109652489423,standing
1783090375972721400,4.617721435546875,0.0033746092659421,-0.2543750124327838,0.05522270552814,0.0409061312675476,-0.0188042744994163,-0.0286698564887046,standing
1783090375982766300,4.627766357421875,-0.0258938447890803,-0.2497512250896543,0.0664455258101224,0.0382713414728641,-0.0013924450613558,-0.0288500860333442,standing
1783090375992810200,4.637810302734375,-0.0343152160505764,-0.229329053177312,0.0979734674960374,0.0241379458457231,0.0211639963090419,-0.0287877693772315,standing
1783090376002855400,4.64785546875,-0.0377958064416423,-0.2389887157958,0.1157370877236127,0.0061345780268311,0.0375328138470649,-0.0235186368227005,standing
1783090376012899300,4.6578994140625,-0.0364002056310884,-0.2144992213793098,0.0869721810102462,-0.0020125648006796,0.0490832105278968,-0.0132127376273274,standing
1783090376022944500,4.667944580078125,-0.0363168381965719,-0.1910274526380002,0.0634328999906778,-0.0001786244101822,0.0497991815209388,-0.0034284167923033,standing
1783090376032988400,4.677988525390625,-0.0103713910844177,-0.1629622916918247,0.0374532400816679,0.0184600409120321,0.0358314327895641,0.0084021436050534,standing
1783090376043032300,4.6880322265625,0.0136283287874422,-0.1300941874433308,-0.0183820443868637,0.0414051339030265,0.0240831244736909,0.0224326066672801,standing
1783090376053077500,4.698077392578125,0.0380232219893485,-0.1108617367722094,-0.0717582452654838,0.0585574880242347,0.0216015912592411,0.0302953235805034,standing
1783090376063121400,4.708121337890625,0.081487959179189,-0.1305539869748055,-0.0117523971140384,0.0583267547190189,0.028110010549426,0.0377837345004081,standing
1783090376073166300,4.718166259765625,0.0410888018387369,-0.1572130805153399,0.0517301872372627,0.0349838845431804,0.038965854793787,0.0468315593898296,standing
1783090376083210500,4.72821044921875,-0.0031411293036304,-0.2152710094694048,0.1020206970602273,0.0013214463833719,0.0542124584317207,0.0456050373613834,standing
1783090376093255200,4.738255126953125,-0.0553489074573852,-0.2672569250334054,0.1289566347807645,-0.0246094856411218,0.068679541349411,0.046423427760601,standing
1783090376103299300,4.74829931640625,-0.104390787192434,-0.3597896627802401,0.1365448979526758,-0.0338406711816787,0.0745451897382736,0.0391595885157585,standing
1783090376113343500,4.758343505859375,-0.0898977130681276,-0.394227354433015,0.1258697746813297,-0.0250780712813138,0.064180701971054,0.0260019768029451,standing
1783090376123388400,4.768388427734375,-0.0160102920205332,-0.3943883902136236,0.0322521643072366,-0.0057195615954697,0.0319811776280403,0.0115896146744489,standing
1783090376133432300,4.778432373046875,-0.0052084005643613,-0.352005292514339,-0.0771744250953197,0.0185226611793041,0.0003713187761604,-0.0027688185218721,standing
1783090376143477500,4.7884775390625,0.0225798066039569,-0.3159041976939886,-0.1152642095148563,0.0211078003048896,-0.0315681919455528,-0.0155169703066349,standing
1783090376153521400,4.798521484375,-0.0080126808627508,-0.2981337823994457,-0.0809270556271076,0.0019354366231709,-0.0460238270461559,-0.0281789693981409,standing
1783090376163566300,4.80856640625,-0.0949056956895627,-0.2873533721227199,-0.0295335529983043,-0.0235020108520984,-0.0515924990177154,-0.0319236405193805,standing
1783090376173610500,4.818610595703125,-0.1452111473533325,-0.2770916519578546,0.0531868157863616,-0.0385246388614177,-0.050066240131855,-0.03375855833292,standing
1783090376183655200,4.8286552734375,-0.1236035833150148,-0.2580208946544677,0.0674643474638462,-0.0308585129678249,-0.0504001714289188,-0.0357846245169639,standing
1783090376193699300,4.83869921875,-0.0649907786908559,-0.2201785821899771,0.0717512310028076,-0.010756442323327,-0.0457092821598053,-0.0348429307341575,standing
1783090376203743500,4.848743408203125,-0.0116751671593636,-0.2266114647816866,0.0835918909221887,0.0017957468517124,-0.0304409600794315,-0.0334566235542297,standing
1783090376213788200,4.8587880859375,-0.0025474377267993,-0.2260246778696775,0.1099275246620178,0.0093157142400741,-0.0221896842122077,-0.0278333593159914,standing
1783090376223832300,4.868832275390625,-0.0217473378351889,-0.266254835318774,0.0633767858892679,0.0181608293205499,-0.0079966317862272,-0.0260108895599842,standing
1783090376233877500,4.87887744140625,-0.0299982661669142,-0.2864183562949299,0.0299485635399818,0.0225494541227817,0.0027417670935392,-0.0255698710680007,standing
1783090376243921200,4.888921142578125,-0.0455274601396173,-0.2806337815441191,0.0441173741459846,0.018736258149147,0.0098223164677619,-0.0130230542272329,standing
1783090376253966300,4.89896630859375,-0.0463500651014968,-0.2774406115259975,0.0602034165501594,0.0131646590307354,0.0104020871222019,0.0010695946402847,standing
1783090376264010500,4.909010498046875,-0.0174174188720993,-0.2876555699396878,0.0510685084581375,0.005270775873214,0.0097846500575542,0.0088231237605214,standing
1783090376274054400,4.919054443359375,-0.0133603985662572,-0.2531664403606206,0.0493920996785163,-0.0166393164545297,0.0136640761047601,0.0145774157717823,standing
1783090376284099300,4.929099365234375,-0.0023724464860744,-0.1972564101554453,0.0838157628059387,-0.0392659343779087,0.0081381257623434,0.0266413353383541,standing
1783090376294143500,4.9391435546875,-0.0155308379405178,-0.1932810767836868,0.056513329860568,-0.0479683466255664,-0.0108811045065522,0.0359719842672348,standing
1783090376304188200,4.949188232421875,-0.0598289389482699,-0.1664518873732537,-0.0121089554667472,-0.0332419537007808,-0.0340539142489433,0.045383732765913,standing
1783090376314232300,4.959232421875,-0.1060125797079876,-0.1670003150362521,-0.0603138911873102,-0.0048585152253508,-0.0591041445732116,0.0524589531123638,standing
1783090376324277500,4.969277587890625,-0.1206948562614619,-0.2009488349325954,-0.069366966214776,0.0175548773258924,-0.0780613869428634,0.0506641790270805,standing
1783090376334321200,4.979321044921875,-0.1359252134180627,-0.2308244793668389,0.0138864865332841,0.0221448354423046,-0.0812127143144607,0.0479155294597148,standing
1783090376344365300,4.989365234375,-0.1323763800963759,-0.2456746963657438,0.0824509041935205,0.0148094305768609,-0.0695455521345138,0.0410360507667064,standing
1783090376354410500,4.999410400390625,-0.1216079342520795,-0.258005770150572,0.1238490825086831,-9.20202583074e-05,-0.0415831580758094,0.0348753593862056,standing
1783090376364454100,5.0094541015625,-0.0982563395580276,-0.2318310260608792,0.1476437995940446,-0.0141153996810317,-0.010897391475737,0.0323889702558517,standing
1783090376374499300,5.019499267578125,-0.0573686315156519,-0.2344900892022997,0.1612052919566631,-0.0233429856598377,0.0191433317959308,0.0263041779398918,standing
1783090376384543500,5.02954345703125,0.0330062523438595,-0.2364773905619978,0.1144201599061489,-0.031032770872116,0.0350887104868888,0.0149608440697193,standing
1783090376394588400,5.03958837890625,0.0774717823403887,-0.1981232561178505,0.0687953038066625,-0.0334629043936729,0.0418574027717113,0.0111463982611894,standing
1783090376404632300,5.04963232421875,0.0777507819448597,-0.1941011609949171,0.0520481671452522,-0.0303066428750753,0.0282650850713253,0.0050315745174884,standing
1783090376414676500,5.059676513671875,0.027891393548157,-0.2327420034259557,0.0236661222696304,-0.0179628916084766,0.0036313785240054,0.003754056058824,standing
1783090376424721400,5.069721435546875,-0.0745178644382394,-0.2780934494115412,-0.0315641820430755,-0.0072250440716743,-0.0175611488521099,-0.0011116655077785,standing
1783090376434765300,5.079765380859375,-0.1555629386881366,-0.3027878918156028,-0.0165764562696218,-0.0029227074701339,-0.0360714457929134,-0.0104013038799166,standing
1783090376444810500,5.089810546875,-0.2058146874032914,-0.2742911345191299,0.0083627546757459,-0.0104273650795221,-0.0516811944544315,-0.0174309201538562,standing
1783090376454854100,5.099854248046875,-0.1782643258451484,-0.2641322171416133,0.0264770880371332,-0.0146761732175946,-0.0526351407170295,-0.0211971625685691,standing
1783090376464899300,5.1098994140625,-0.1289346969435922,-0.2495757223922759,0.0620592735499143,-0.019572477787733,-0.0431380309164524,-0.0268429275602102,standing
1783090376474943500,5.119943603515625,-0.0597019698340445,-0.2470533643078059,0.1075356610894203,-0.0162682943046093,-0.0285066217184066,-0.0321095958352088,standing
1783090376484987100,5.129987060546875,-0.0158742993496358,-0.2350531299125403,0.087571315947175,-0.0098741315305233,-0.0142926461994647,-0.0349039174616336,standing
1783090376495032300,5.1400322265625,-0.0024230076295323,-0.2488711543194949,0.0806383018136024,0.0022605615667998,0.0056600226089358,-0.0346695557236671,standing
1783090376505076500,5.150076416015625,-0.0174626827859319,-0.2968128359939903,0.0897182648479938,0.0045372173190116,0.0275826342403888,-0.0284064728766679,standing
1783090376515121400,5.160121337890625,-0.0418142848353832,-0.3157548523511737,0.0873088656187057,0.0006255663465708,0.0440044812858104,-0.0172888413071632,standing
1783090376525165300,5.170165283203125,-0.0304479826957918,-0.2910864942364394,0.0702700525343418,0.0041084820404648,0.0606954619288444,-0.0039802892133593,standing
1783090376535210500,5.18021044921875,-0.0354074134677648,-0.3071429452199489,0.0540542462706565,0.0069703152403235,0.0737377554178237,0.0146698271855711,standing
1783090376545254400,5.19025439453125,-0.0744854417396709,-0.2965783696509897,0.0618774872422218,0.0175475869327783,0.078772947192192,0.0370908454060554,standing
1783090376555299300,5.20029931640625,-0.08799620856205,-0.2916045998264104,0.0474357049137353,0.0366504378616809,0.0787092968821525,0.0581402033567428,standing
1783090376565343500,5.210343505859375,-0.0920855602349154,-0.30624088181369,0.0343628728508949,0.0467250570654869,0.0734566897153854,0.0698472633957862,standing
1783090376575387400,5.220387451171875,-0.0743876804536208,-0.319700667367503,0.0162473704457283,0.0489919409155845,0.0650908946990966,0.0799094811081886,standing
1783090376585432600,5.2304326171875,-0.075719294383563,-0.3383339100364595,0.0062976388394832,0.0385503433644771,0.0622819773852825,0.0754872411489486,standing
1783090376595476500,5.2404765625,-0.0407538159970194,-0.3412972168214619,-0.018245266264677,0.0122612155973911,0.0647957399487495,0.0693603679537773,standing
1783090376605521400,5.250521484375,-0.0515681468096561,-0.3219044610220938,0.0041132805377244,-0.022012760862708,0.0546362400054931,0.0572380535304546,standing
1783090376615565600,5.260565673828125,-0.0643023397689685,-0.3351085913144052,0.0409253001064062,-0.0421236231923103,0.0285958498716354,0.0502448603510856,standing
1783090376625610500,5.270610595703125,-0.0513877670077607,-0.3194538529995828,0.0207195474237203,-0.0374852158129215,-0.0001815534196794,0.0411879867315292,standing
1783090376635654400,5.280654296875,-0.0532700736230239,-0.3013267332218587,-0.0098906948953866,-0.0226633921265602,-0.0324984788894653,0.0345537886023521,standing
1783090376645698600,5.290698486328125,0.0003943878787569,-0.2979114448856562,-0.0174006321340799,-0.0162262599915266,-0.0605387799441814,0.0201359651982784,standing
1783090376655743500,5.300743408203125,-0.024650603262335,-0.2861746837321668,-0.0318324775904417,-0.0223920103162527,-0.0762389153242111,0.012663934379816,standing
1783090376665787400,5.310787353515625,-0.0446197707101702,-0.254653025656566,-0.0011918401330709,-0.0304458010941743,-0.0817265436053276,0.0067011807113885,standing
1783090376675832600,5.32083251953125,-0.0422317247961647,-0.2323207092739641,0.0350572848558425,-0.0319273173809051,-0.0808897837996482,-0.0032758193556219,standing
1783090376685876500,5.33087646484375,-0.0783640550049953,-0.2024827665016055,0.0752227065056562,-0.0277074612677097,-0.0714439377188682,-0.0114044500514864,standing
1783090376695921400,5.34092138671875,-0.0935025691596791,-0.2031057207055389,0.0964689081519842,-0.0222775414586067,-0.0564807020127773,-0.0179204065352678,standing
1783090376705965600,5.350965576171875,-0.0839388411963358,-0.2194376276295632,0.1198947919249534,-0.0196788646280765,-0.0429818145930767,-0.0196798928081989,standing
1783090376716009500,5.361009521484375,-0.044608262935467,-0.2440994829382747,0.12868541662395,-0.0219595991075038,-0.0324522070586681,-0.0284637957811355,standing
1783090376726054400,5.371054443359375,-0.0210542044718749,-0.219226176835969,0.1018354036211967,-0.0287263859063386,-0.0200641769915819,-0.0362449511885643,standing
1783090376736098600,5.3810986328125,-0.0151344042351469,-0.1949413381461054,0.0653612377047538,-0.0352705717086792,-0.0094711873680353,-0.0366878360509872,standing
1783090376746143500,5.3911435546875,0.0050006030325777,-0.1875570731136947,0.0396060342013835,-0.0408703573048114,-0.0079087875783443,-0.0337742678821086,standing
1783090376756187400,5.4011875,-0.0182447000090964,-0.1828161621969193,0.061394087639451,-0.0326630249619483,-0.0312971994280815,-0.0201854929327964,standing
1783090376766232600,5.411232666015625,-0.0180078407796099,-0.185082645824179,0.0089689038753509,-0.0053203925490379,-0.0612044967710971,-0.0113394688814878,standing
1783090376776276500,5.4212763671875,-0.0296020151246339,-0.2075934605788439,-0.0165787943571805,0.0151358786970376,-0.0819880664348602,-0.0076430016197264,standing
1783090376786320400,5.4313203125,-0.063108234613575,-0.2149292102944105,-0.0144137252777814,0.0063607203774154,-0.0785088390111923,-0.0109136961400508,standing
1783090376796365600,5.441365478515625,-0.0563513442318886,-0.2169029945854097,0.0481944143265485,-0.0158399231731891,-0.0599127821624279,-0.009330446831882,standing
1783090376806409500,5.451409423828125,-0.0504964441912248,-0.174036716479063,0.1155044480115175,-0.0371334999799728,-0.0412908233702182,-0.0099335191771388,standing
1783090376816454400,5.461454345703125,-0.0179947438360191,-0.1375797939583659,0.1162748478621244,-0.0376853048801422,-0.0291563980281353,-0.0066493097692728,standing
1783090376826498600,5.47149853515625,-0.006087558019068,-0.1576199077505618,0.1090764607906341,-0.0209931880235672,-0.034584641456604,-0.0028098965995013,standing
1783090376836543500,5.48154345703125,-0.0152508154227398,-0.1849193450212478,0.0471966354608535,0.0033371867612004,-0.0490991361439228,-0.0016924343071877,standing
1783090376846587400,5.49158740234375,-0.0344573096686974,-0.2078988002009689,-0.0293231251180171,0.0142212565988302,-0.0640702918171882,-0.0029634286183863,standing
1783090376856631600,5.501631591796875,-0.0974415160438045,-0.2288470418140292,-0.040157238343358,0.0067148716188967,-0.069515123963356,-0.00424440857023,standing
1783090376866676500,5.511676513671875,-0.1126254219764843,-0.2520473732028156,0.0149918174266815,-0.0068072760477662,-0.0660216212272644,-0.0061805937439203,standing
1783090376876720400,5.521720458984375,-0.0695193072322756,-0.2120963249560445,0.0655342561841011,-0.0128638371825218,-0.0605839751660823,-0.0018974323756992,standing
1783090376886765600,5.531765625,-0.0365807680960744,-0.1714304795034229,0.1109820021510124,-0.0103462291881442,-0.0579782798886299,0.0052680005319416,standing
1783090376896809500,5.5418095703125,-0.0250914058323949,-0.1367327486749738,0.0772469058096408,0.010830694809556,-0.0726863890886306,0.0102249421179294,standing
1783090376906854400,5.5518544921875,0.0550261600427329,-0.1116042257025837,0.0032335750937461,0.0405163839459419,-0.0809192210435867,0.0085076717659831,standing
1783090376916898600,5.561898681640625,0.0720186862999573,-0.0724650052953511,0.0055015200257301,0.0528404302895069,-0.0722253322601318,0.0052615450695157,standing
1783090376926942500,5.5719423828125,0.0436128221573308,-0.0697150490000843,0.040226211926341,0.0275442171841859,-0.0510337278246879,-0.0016847793012857,standing
1783090376936987400,5.5819873046875,-0.0152412621431052,-0.1077061222855001,0.091318101260066,-0.0180608183145523,-0.0298597328364849,-0.0031324736773967,standing
1783090376947031600,5.592031494140625,-0.0778923641063272,-0.1472740894988179,0.1167296058923006,-0.0393009558320045,-0.026227606460452,-0.002472008112818,standing
1783090376957076500,5.602076416015625,-0.1160064061842858,-0.2081064516022801,0.0728518857210874,-0.0179187022149562,-0.0388326123356819,-0.0005545320454984,standing
1783090376967120400,5.612120361328125,-0.0971891121853142,-0.2684329830754548,0.0431955831259489,0.0161677617579698,-0.0526000559329986,-0.0047996779903769,standing
1783090376977165600,5.62216552734375,-0.0599465191796421,-0.2513702045936137,0.0570908374875783,0.0342266596853733,-0.0520072355866432,-0.014523678459227,standing
1783090376987209500,5.63220947265625,-0.0230557718189433,-0.1989588301591575,0.0854325503528118,0.0258123967796564,-0.0404650270938873,-0.0231266226619482,standing
1783090376997253400,5.64225341796875,-0.0209613933555781,-0.1647031440097838,0.0913233619570732,0.006479712203145,-0.027390768751502,-0.0229268856346607,standing
1783090377007298600,5.652298583984375,-0.0576264422016218,-0.2014133106391877,0.0471282463997602,-0.00312479166314,-0.0107982736080884,-0.027884092181921,standing
1783090377017342500,5.662342529296875,-0.0868817993130534,-0.2181547482121735,0.0677478405803441,0.0048929210752248,-0.006388078443706,-0.0326863043010234,standing
1783090377027387400,5.672387451171875,-0.1058616634625941,-0.2245133965238928,0.0621814386248588,0.0152177307754755,0.0048504606820642,-0.0316324904561042,standing
1783090377037431600,5.682431640625,-0.0544541323084384,-0.2457669046938419,0.0857791718333959,0.0211640354245901,0.0081003159284591,-0.0265956539660692,standing
1783090377047476500,5.6924765625,0.0028818755792453,-0.2416643647458404,0.0788484957873821,0.0128610990941524,0.0101389661431312,-0.025587648153305,standing
1783090377057520400,5.702520263671875,0.0318068682251498,-0.2260887560818344,0.0458767850339412,0.0006326620932668,-0.0040181316435337,-0.0235649775713682,standing
1783090377067564500,5.712564453125,0.0447743036847561,-0.2316343344449996,-0.0283843829631805,0.0006979533936828,-0.0189644005149602,-0.0206202529370784,standing
1783090377077609500,5.722609375,0.0341619799839332,-0.2396920417595654,-0.0779407332926988,0.0093178069218993,-0.0272660069167614,-0.013529585674405,standing
1783090377087653400,5.7326533203125,-0.0277692467395216,-0.2005441265892237,-0.0168640410393476,0.0117992050945758,-0.027926966547966,-0.0060038254596292,standing
1783090377097698600,5.742698486328125,-0.0637527795948088,-0.2198865404408425,0.0481318704843521,0.0094979684799909,-0.0129839684814214,-0.0034679640084505,standing
1783090377107742500,5.752742431640625,-0.031695699468255,-0.1818952479597181,0.1066980412214994,0.0041186925955116,-0.0014163390733301,-0.0015562800690531,standing
1783090377117787600,5.76278759765625,0.0108856607494875,-0.1482318286150694,0.1371194829702377,0.001946086063981,0.0030106334015727,0.0027218216564506,standing
1783090377127831600,5.77283154296875,0.0016837883684784,-0.1394596163555979,0.0845043295919895,0.0069044539704918,-0.0003665564581751,0.0078970082104206,standing
1783090377137875500,5.78287548828125,-0.0658573141260072,-0.1629255398780107,0.0355810164690017,0.0206479616463184,-0.0066787810064852,0.014350114390254,standing
1783090377147920600,5.792920654296875,-0.098081457915157,-0.1851253889873623,0.0425789125323295,0.0244670640677213,-0.0079268924891948,0.0072712330147624,standing
1783090377157964500,5.802964599609375,-0.038801111026667,-0.2115751506261527,0.0297094940871,0.0055237323977053,-0.0106883235275745,-0.0006767048034816,standing
1783090377168009500,5.813009521484375,-0.0572017505161464,-0.1996274501357227,0.0321340908855199,-0.0177484825253486,-0.009720079600811,-0.006455497816205,standing
1783090377178053400,5.823053466796875,-0.0413465211931616,-0.1947998838488012,0.0200005854994058,-0.0269534308463335,-0.0088628083467483,-0.01179566886276,standing
1783090377188098300,5.833098388671875,-0.0262839035525918,-0.1503784121897071,0.0587678307890892,-0.0123656466603279,-0.0098173152655363,-0.0105397906154394,standing
1783090377198142500,5.843142578125,-0.0645947833769023,-0.1440336462728679,0.0480892003864049,0.0086472267284989,-0.0095262322574853,-0.0044976100325584,standing
1783090377208186400,5.853186279296875,-0.0624555063258856,-0.1848022214476019,0.0562993948489427,0.0165405571460723,-0.0135888587683439,0.0046974862925708,standing
1783090377218231600,5.8632314453125,-0.0247072653530165,-0.1889148443982005,0.0577314734786748,0.008860002271831,-0.0238233879208564,0.0119428820908069,standing
1783090377228275500,5.873275390625,0.0026478841602802,-0.1864232467781752,0.0465706125169992,-0.0025965142995119,-0.0358412750065326,0.0172976348549127,standing
1783090377238320600,5.883320556640625,0.0100146866012364,-0.1882241587202996,0.011682254487276,-0.0007277741096913,-0.0444115921854972,0.0151271596550941,standing
1783090377248364500,5.893364501953125,0.0215530391057953,-0.1940369366522878,0.0115291097521781,0.0054959887638688,-0.0481628440320491,0.0046568745747208,standing
1783090377258409500,5.903409423828125,0.0014267448674887,-0.1695796640049666,-0.0045861587464809,0.0073679247871041,-0.0469058342278003,-0.0019373786635696,standing
1783090377268453600,5.91345361328125,-0.0298638078659772,-0.1583135160379111,0.0099883100509643,0.0017323195934295,-0.0303780306130647,-0.00475819921121,standing
1783090377278497500,5.92349755859375,-0.0512657480632886,-0.1668503121063113,0.1032628060758113,-0.0060590244829654,-0.0136334039270877,-0.0043776333332061,standing
1783090377288542500,5.93354248046875,-0.0453479388542473,-0.1806478782471269,0.1509784969747066,-0.0182123538106679,-0.0053828111849725,-0.0043725734576582,standing
1783090377298586600,5.943586669921875,-0.0014651771817356,-0.1847503451298922,0.1357844349741935,-0.0163715779781341,-0.0050528454594314,0.0015878474805504,standing
1783090377308631300,5.95363134765625,0.033793511997722,-0.1979538909003138,0.0666448477745056,-0.0070250849239528,-0.0093697197735309,0.0054558897390961,standing
1783090377318675500,5.963675537109375,0.0235193707427009,-0.2264753442466258,0.003093874362111,0.0039071911014616,-0.0257377754896879,0.0117585267871618,standing
1783090377328720600,5.973720703125,-0.0327094796206802,-0.2322777469150722,-0.0549164160579443,0.0221366174519062,-0.0244409684091806,0.0236592609435319,standing
1783090377338764500,5.9837646484375,-0.0487785343574359,-0.232775028912723,0.0254079975008964,0.0357352495193481,-0.0239629317075014,0.0295618902891874,standing
1783090377348809500,5.9938095703125,0.0202354537012055,-0.2413585136670619,0.0905003551363945,0.0303055495023727,-0.0255047529935836,0.0327846482396125,standing
1783090377358853600,6.003853515625,0.010794329204224,-0.2547729257091879,0.0749737001806497,0.0188385117799043,-0.0233182981610298,0.0336131565272808,standing
1783090377368897500,6.0138974609375,0.0363850993935018,-0.2603972683969885,0.0443897613465785,0.0099995704367756,-0.0126285944133996,0.0265158340334892,standing
1783090377378942500,6.0239423828125,0.0067917424993589,-0.2298444553535431,0.0449175846129655,0.0087169921025633,0.0014856262132525,0.0223314762115478,standing
1783090377388986600,6.033986572265625,-0.0381538626316934,-0.2335880257960408,0.0637947190403938,0.0119404438883066,0.0225487649440765,0.0152854835614562,standing
1783090377399031300,6.04403125,-0.0658058761997148,-0.1958100838046521,0.0998176340579986,0.002794616157189,0.0448106601834297,0.0093061542138457,standing
1783090377409075500,6.054075439453125,-0.0309503609936684,-0.1582550638489425,0.1037245783686637,-0.0128988651558756,0.0522775128483772,0.0044690547510981,standing
1783090377419120600,6.06412060546875,-0.0301593202138319,-0.1750421671945601,0.0578074613243341,-0.0243523214012384,0.0576445832848548,0.0065492503345012,standing
1783090377429164300,6.074164306640625,-0.0258141306163743,-0.1915611941885203,0.0183715229928493,-0.0291781052947044,0.0507260598242282,0.0035484652034938,standing
1783090377439208400,6.08420849609375,-0.0219383851615712,-0.1906581809341907,0.0252647896379232,-0.025481104850769,0.0369932055473327,0.0077258995734155,standing
1783090377449253600,6.094253662109375,-0.0169516097249463,-0.1932620067570358,-0.0083417118877172,-0.0130130648612976,0.0261623300611972,0.012941169552505,standing
1783090377459297500,6.104297607421875,-0.0035564503725618,-0.1919203098244965,-0.0119341834217309,-0.0005856901407241,0.0069287158548831,0.0168570820242166,standing
1783090377469342500,6.114342529296875,-0.0382750778585672,-0.2049012258201837,-0.0297872354984283,0.0145019590854644,0.003591432236135,0.0144264809787273,standing
1783090377479386600,6.12438671875,-0.0049350817820057,-0.2228588342498987,0.0280921220183372,0.026664350181818,0.0022497316822409,-0.0009040057193487,standing
1783090377489431300,6.134431396484375,0.0549943401323631,-0.1896529494144022,0.0758387925773858,0.0229999274015426,0.0031201657839119,-0.0138423088937997,standing
1783090377499475500,6.144475341796875,0.0348487201390788,-0.1884361940357834,0.1053799443602561,0.0052590142004191,0.0070704324170947,-0.0204626601189374,standing
1783090377509519600,6.15451953125,-0.0431353043060749,-0.2068107127033173,0.0853051245808601,-0.0190966613590717,0.0210632868111133,-0.0207717195153236,standing
1783090377519564300,6.164564208984375,-0.0708614425562322,-0.202366519710794,0.0704646983236074,-0.0323413610458374,0.0423632487654686,-0.0204622596502304,standing
1783090377529608400,6.1746083984375,-0.0506698645293712,-0.2293881629534065,0.0798234782993793,-0.0386034287512302,0.0563930869102478,-0.0251904353499412,standing
1783090377539653600,6.184653564453125,-0.0060209407899528,-0.2069021903790533,0.0752992788732051,-0.0329902805387973,0.066427081823349,-0.0345418602228164,standing
1783090377549697300,6.194697265625,0.0324407091492787,-0.1315212976370006,0.0019569792866706,-0.0166577827185392,0.0745913013815879,-0.0375395826995372,standing
1783090377559742500,6.204742431640625,0.0426190984122455,-0.1343555712148547,-0.0263677824437618,0.0056238202378153,0.0865928381681442,-0.0370658040046691,standing
1783090377569786600,6.21478662109375,0.0441195295704528,-0.1462361978184431,3.85784447193e-05,0.0181249789893627,0.1011706814169883,-0.0345994569361209,standing
1783090377579830500,6.22483056640625,-0.0015540975742042,-0.1962202720407396,0.0577951863646507,0.0142221171408891,0.1100216954946518,-0.0318342931568622,standing
1783090377589875000,6.234875,-0.0653642333794385,-0.2061919232178479,0.0688116704195737,0.0100238993763923,0.1099414974451065,-0.0204169210046529,standing
1783090377599919000,6.244919189453125,-0.1050800115656107,-0.2428570816617458,0.0841273129731416,0.0137363448739051,0.0960613638162612,-0.016386492177844,standing
1783090377609963800,6.2549638671875,-0.0872213334657251,-0.2395556289635598,0.085517890548706,0.0199365857988595,0.0764863044023513,-0.0114870090037584,standing
1783090377620008000,6.265008056640625,-0.0501873417094349,-0.2389094400145113,0.0873322464942932,0.0233156029134988,0.0523311607539653,-0.0060504311695694,standing
1783090377630053000,6.27505322265625,0.043484665733017,-0.2206635161627083,0.0434469275385141,0.0197139792144298,0.0338764637708663,-0.000628437846899,standing
1783090377640097000,6.285096923828125,0.0429150491515174,-0.2025938256606459,0.0058908116042613,0.0140065597370266,0.0208469480276107,-0.0040260986424982,standing
1783090377650141000,6.295140869140625,0.0436619585286825,-0.2488758304946124,0.0003612345278263,0.0070868739858269,0.0015976731665432,-0.0078784916549921,standing
1783090377660186000,6.30518603515625,0.0126199737288057,-0.2820771122202277,-0.023556816676259,0.0027515138499438,-0.0178031884133815,-0.013667139224708,standing
1783090377670230000,6.31522998046875,-0.0229994750544428,-0.268349177249521,-0.0187929632753133,0.0040500247851014,-0.02176901884377,-0.0215814542025327,standing
1783090377680275000,6.32527490234375,-0.0584949321318417,-0.2427531098306179,0.0338701208978891,0.0032990132458508,-0.0112567227333784,-0.0258726049214601,standing
1783090377690319000,6.335319091796875,-0.1026538803972303,-0.2370530715581029,0.1048152962148189,0.0036819318775087,-0.0066541717387735,-0.0343548394739627,standing
1783090377700363800,6.34536376953125,-0.0898137976443395,-0.2404449059534817,0.0946808556914329,0.0052223047241568,0.0028953913133591,-0.0385586395859718,standing
1783090377710408000,6.355407958984375,-0.0457850150972604,-0.2079256882078945,0.1112409453481435,0.0075606913305819,0.0084992507472634,-0.0435899496078491,standing
1783090377720452000,6.3654521484375,0.0094923797601833,-0.2123657164819538,0.0966606313318014,0.0050746309570968,-0.0036868415772914,-0.0532963760197162,standing
1783090377730496800,6.375496826171875,0.0278689442543312,-0.2327451452311128,0.023646248525381,0.0014607266057282,-0.0211085882037878,-0.0549821555614471,standing
1783090377740541000,6.385541015625,0.0162561748066917,-0.2499454324875026,-0.0353881242454051,0.0014740421902388,-0.0346811227500438,-0.054300382733345,standing
1783090377750586000,6.395586181640625,-0.0255783490991219,-0.2547000796686858,-0.0469885456681251,0.0118139907717704,-0.0547528341412544,-0.0508392788469791,standing
1783090377760630000,6.405630126953125,-0.0685427903503179,-0.2451793140642345,-0.042760698840022,0.0296739470213651,-0.0637734979391098,-0.047321505844593,standing
1783090377770675000,6.415675048828125,-0.0653868105374276,-0.22739311667867,0.0246159703403711,0.0414041876792907,-0.0695541575551033,-0.0462843365967273,standing
1783090377780719000,6.425718994140625,-0.0506306650301441,-0.2115671134501695,0.0869412013500928,0.0368379354476928,-0.0688601359724998,-0.0429135747253894,standing
1783090377790763000,6.435762939453125,-0.0409890495250001,-0.214740848115459,0.0756920775830745,0.0204639267176389,-0.0542484037578105,-0.0477436184883117,standing
1783090377800808000,6.445807861328125,-0.0419560313936322,-0.204580396367982,0.0807183813124895,-0.0022139546927064,-0.0346264988183975,-0.0506003908812999,standing
1783090377810852000,6.45585205078125,-0.0273491946965456,-0.1807820990860462,0.1044780270844698,-0.0080025531351566,-0.022354606539011,-0.0446644015610218,standing
1783090377820897000,6.46589697265625,0.0080073288341984,-0.2061375626821071,0.0765256057977676,0.0008753607980906,-0.0174727663397789,-0.042481143027544,standing
1783090377830941000,6.47594091796875,0.024943448729068,-0.2217474389418959,0.0697632720559835,0.0059421695768833,-0.0244656912982463,-0.0478200502693653,standing
1783090377840986000,6.485986083984375,0.0368934142418205,-0.2126202757649123,0.0448310753732919,0.000745543744415,-0.03948725014925,-0.0488983653485775,standing
1783090377851029800,6.49602978515625,0.0382595149632543,-0.2333526826702058,0.0348924496829509,-0.0095288157463073,-0.0519320666790008,-0.0568776614964008,standing
1783090377861074000,6.506073974609375,-0.0278412890624254,-0.231427559826523,0.0256464824318885,-0.0221801623702049,-0.0621985532343387,-0.0586955361068248,standing
1783090377871119000,6.516119140625,-0.0599578808238729,-0.2430452977102249,0.0352525151669979,-0.0289632715284824,-0.0699012801051139,-0.0560047440230846,standing
1783090377881163000,6.5261630859375,-0.1096469906875863,-0.2475978464480489,0.0040846389651298,-0.0260186158120632,-0.0800444632768631,-0.0419235453009605,standing
1783090377891208000,6.5362080078125,-0.1204421236094087,-0.2466237407188862,-0.0223404266238212,-0.0097776446491479,-0.0779815539717674,-0.0315238386392593,standing
1783090377901252000,6.546252197265625,-0.0801436866970732,-0.2545271342545747,0.0188356333732604,0.0129164829850196,-0.0626428127288818,-0.025237975642085,standing
1783090377911297000,6.556297119140625,0.0092041008707135,-0.2106750599812716,0.1149105737715959,0.0258640609681606,-0.04380589351058,-0.0295612178742885,standing
1783090377921341000,6.5663408203125,0.0796704066295176,-0.1849396571569144,0.1330184773921966,0.0201888643205165,-0.0194052103906869,-0.0352302901446819,standing
1783090377931385000,6.576385009765625,0.0636646629199385,-0.1817849194530397,0.1178080487787723,-0.0001576794311404,-0.0080225393176078,-0.0352807529270648,standing
1783090377941430000,6.586429931640625,0.006382832904905,-0.2228205480661243,0.0422135863512754,-0.0241983011364936,-0.0075737969018518,-0.0300737433135509,standing
1783090377951474000,6.596473876953125,-0.0526406896783039,-0.2677457314636558,-0.0415384635686874,-0.0321180969476699,-0.0207218639552593,-0.027303522452712,standing
1783090377961519000,6.60651904296875,-0.0500018290746957,-0.2763953402567655,-0.0131172557264566,-0.0216319020837545,-0.0359207913279533,-0.0216672085225582,standing
1783090377971563000,6.61656298828125,-0.0453860058423131,-0.2642709680251777,-0.0002536825001239,-0.0001187534071505,-0.0456402972340583,-0.024261325597763,standing
1783090377981608000,6.62660791015625,-0.0595653378423303,-0.2292541613101959,0.0318289704591035,0.0163875184953212,-0.0410604588687419,-0.0265085007995367,standing
1783090377991652000,6.636652099609375,-0.0812332720320671,-0.2188300901904702,0.1055167224824428,0.0185566693544387,-0.0220363177359104,-0.0337285995483398,standing
1783090378001696000,6.646696044921875,-0.0543457034979015,-0.2418835604544728,0.1668500198453664,0.0131914662197232,-0.0060522910207509,-0.0439636595547199,standing
1783090378011741000,6.656740966796875,-0.0571683231705799,-0.2969856352776289,0.1060538980990648,0.0027976403944194,0.0126572139561176,-0.0533009022474288,standing
1783090378021785000,6.66678515625,-0.0419321755940094,-0.3180298115458339,0.0487023638486862,-0.0056349923834204,0.0392645895481109,-0.0614978484809398,standing
1783090378031830000,6.676830078125,0.0023179215535521,-0.276618043096736,0.0806891552180051,-0.0154440039768815,0.058787528425455,-0.0680442303419113,standing
1783090378041874000,6.6868740234375,0.0281525835013017,-0.2641246914222836,0.0657809244215488,-0.0219711475074291,0.0656012296676635,-0.0717851743102073,standing
1783090378051919000,6.696919189453125,0.0140950147174298,-0.2482619363799691,0.032907997867465,-0.0159199014306068,0.058228313922882,-0.0671889558434486,standing
1783090378061963000,6.706962890625,-0.00839468418397,-0.2234039739772677,-0.0006534954726696,0.0014303259085863,0.0364662930369377,-0.0585645735263824,standing
1783090378072007000,6.7170068359375,-0.0149592668639495,-0.2457986150063574,-0.0325672216057777,0.0243091862648725,0.0100713986903429,-0.0517330318689346,standing
1783090378082052000,6.727052001953125,-0.0545998609220609,-0.2832429411292076,-0.0353542219758033,0.0353674292564392,-0.0125034190714359,-0.0471795611083507,standing
1783090378092096000,6.737095947265625,-0.0667244888819754,-0.2883839572794735,-0.0244014508068561,0.0319232903420925,-0.0179139822721481,-0.0444229878485202,standing
1783090378102141000,6.747140869140625,-0.0831292783791199,-0.2724702027022838,0.0398263989537954,0.0098600648343563,-0.0131892664358019,-0.0418258719146251,standing
1783090378112185000,6.75718505859375,-0.0624873993014916,-0.2667761557791382,0.1033627593189477,-0.0127160791307687,-0.0037431796081364,-0.0403092019259929,standing
1783090378122230000,6.76722998046875,-0.0269141277475282,-0.2626888864655047,0.0816132843255996,-0.0226515345275402,0.0069866962730884,-0.039810124784708,standing
1783090378132274000,6.77727392578125,0.0046222895057871,-0.2141297304797917,0.0682692341059446,-0.0138316843658685,0.0138179212808609,-0.0373052917420864,standing
1783090378142318000,6.787318115234375,0.0548985881403088,-0.1742441486846655,0.0509685552150011,0.0113746020942926,0.0150661431252956,-0.0310836136341094,standing
1783090378152363000,6.797363037109375,0.0689421649314463,-0.1788826221402734,0.0500485177606344,0.0280049815773963,0.0025547367986291,-0.0202381554991006,standing
1783090378162407000,6.807406982421875,0.0380407576460391,-0.2136658392950892,0.0439180521816015,0.0284942053258419,-0.0183649249374866,-0.0116310846060514,standing
1783090378172452000,6.8174521484375,0.0053959772920235,-0.2352580779001116,0.0087853640019893,0.0194895230233669,-0.0303232483565807,-0.0080007975921034,standing
1783090378182496000,6.82749609375,-0.0645948929747566,-0.248013076185435,8.82628053426e-05,-0.0001025542151182,-0.0296334885060787,-0.0047560026869177,standing
1783090378192541000,6.837541015625,-0.1008459907250478,-0.261092337989062,0.0387625691145658,-0.0164901409298181,-0.0290049519389867,-0.0089357029646635,standing
1783090378202585000,6.847585205078125,-0.0454351056810468,-0.2376062484614551,0.0548790066570043,-0.0223629437386989,-0.0176250003278255,-0.0103367920964956,standing
1783090378212629000,6.85762890625,-0.015147629042901,-0.1871934274330735,0.0769160664200782,-0.0157290529459714,0.0007039476186037,-0.0121841579675674,standing
1783090378222674000,6.867673828125,0.0146493606645613,-0.1482350434854626,0.1177180324077606,-0.0010651550255715,0.0156490746885538,-0.0115969311445951,standing
1783090378232718000,6.877718017578125,0.0032989319475367,-0.1497425985042005,0.0936070889800786,0.0026393507141619,0.0292738527059555,-0.0138416420668363,standing
1783090378242763000,6.887762939453125,-0.00976085797064,-0.1896587215680628,0.0663666153550148,-0.0062651941552758,0.0344699472188949,-0.0099803246557712,standing
1783090378252807000,6.897806884765625,-0.0083678327096626,-0.2210770653996616,0.0780804340243339,-0.0139298159629106,0.0317690446972847,-0.0059728669002652,standing
1783090378262851800,6.907851806640625,0.0131008160483092,-0.231085833716765,0.063840896269679,-0.0100210942327976,0.015052649192512,-0.0061923107132315,standing
1783090378272896000,6.91789599609375,-0.0093269965980201,-0.2446925534605979,0.02293956156075,-0.0046891383826732,-0.0040531391277909,-0.0056357774883508,standing
1783090378282940000,6.92793994140625,-0.0156497333461418,-0.2223981579355895,-0.0265472306638956,-0.0081642977893352,-0.0165721271187067,-0.0071311425417661,standing
1783090378292985000,6.937985107421875,-0.0073981839599087,-0.240338596034795,-0.019576807129383,-0.01740581728518,-0.0204607937484979,-0.0083753708750009,standing
1783090378303029000,6.948029052734375,-0.0413656642850488,-0.2109496391389518,-0.0068757309883832,-0.0247524138540029,-0.010400703176856,-0.0075407358817756,standing
1783090378313074000,6.958073974609375,-0.0313548136087134,-0.2160452817775309,0.0410088867366313,-0.0182400159537792,-0.0119849145412445,-0.0043412158265709,standing
1783090378323118000,6.9681181640625,-0.0111733551170676,-0.2108000015351921,0.0859007523864507,0.0028759227134287,-0.0141742993146181,0.0010016179876402,standing
1783090378333163000,6.9781630859375,-0.0218687539914622,-0.2330943239949643,0.0880979701697826,0.0202732905745506,-0.0111460899934172,-0.0025812650565057,standing
1783090378343207000,6.98820703125,-0.0210242294587194,-0.2660324247397482,0.0763391433149576,0.0130468029528856,0.0034581529907882,-0.0139806596562266,standing
1783090378353251000,6.9982509765625,-0.0360077174484729,-0.2696351254068315,0.0918669673144817,-0.0085504110902547,0.0282759629189968,-0.0223078969866037,standing
1783090378363296000,7.0082958984375,-0.0441364807052537,-0.2671788913611322,0.083307813283801,-0.0264836065471172,0.04537158831954,-0.0236397441476583,standing
1783090378373340000,7.01833984375,0.0071803034255281,-0.3071550740491598,0.0867646757394075,-0.0316440537571907,0.0424871258437633,-0.0227595027536153,standing
1783090378383384800,7.028384765625,0.0589678834058344,-0.2811298944979906,0.0508580805778503,-0.0163929294794797,0.021585838869214,-0.0103547647595405,standing
1783090378393429000,7.038428955078125,0.1043086618669331,-0.267891350479424,-0.0310346052110195,0.0010954698082059,-0.0052466909401118,0.0006276450585573,standing
1783090378403474200,7.04847412109375,0.1250556818194687,-0.2632026812065393,-0.0562280831784009,-0.0004875131417065,-0.0291392412036657,0.0084277773275971,standing
1783090378413517800,7.058517822265625,0.0487801783252507,-0.2650903215840459,-0.073544544160366,-0.018011599779129,-0.0421199016273021,0.0060681505128741,standing
1783090378423562000,7.06856201171875,-0.0582242984969168,-0.2489635087780654,-0.0347036491125822,-0.0360984578728675,-0.0493575744330883,-0.0006925505585968,standing
1783090378433607200,7.078607177734375,-0.1278502444414422,-0.249153624522686,0.0166752404689788,-0.0411887355148792,-0.0541522167623043,-0.00552578875795,standing
1783090378443651000,7.088651123046875,-0.1371091077066958,-0.2327200107898563,0.0843675514698028,-0.028708629310131,-0.0639318823814392,-0.0065849279053509,standing
1783090378453696000,7.098696044921875,-0.1061220314318314,-0.2155092752046883,0.1040787986338138,-0.0079854186624288,-0.0600830353796482,-0.0066363266669213,standing
1783090378463740200,7.108740234375,-0.0565564748825505,-0.2436758506987243,0.1242535716563463,-0.0057030888274312,-0.0511673055589199,-0.0143349934369325,standing
1783090378473784000,7.1187841796875,-0.0428037342641502,-0.2504467330731451,0.114335988754034,-0.0219540074467659,-0.0345240719616413,-0.0143028357997536,standing
1783090378483829000,7.1288291015625,-0.0198254115955904,-0.2404806348539888,0.0976689315915107,-0.0422949641942977,-0.0201390068978071,-0.0119925430044531,standing
1783090378493873000,7.138872802734375,-0.0015978271180763,-0.2320543134227395,0.0795469994455575,-0.0472714379429817,-0.0089385900646448,-0.0032555102370679,standing
1783090378503917800,7.148917724609375,0.0218278009265661,-0.2490098321378231,0.0419102194905281,-0.036574587225914,-0.001948591787368,-0.0024368544109165,standing
1783090378513962000,7.1589619140625,0.0466960655275732,-0.2305542110580951,-0.0025771570116281,-0.0204136390239,0.00298742367886,-0.0042838896624743,standing
1783090378524007200,7.169007080078125,0.0754608261104673,-0.1783983457546681,0.0202338097333908,-0.0022301075514405,0.0122379139065742,-0.0027829320169985,standing
1783090378534050800,7.17905078125,0.0156663922199979,-0.1957707016423344,0.0226812028855085,0.0001500432845205,0.0111734364181756,0.0033520564902573,standing
1783090378544095000,7.189094970703125,-0.0369242843041196,-0.2079951001822948,0.0471107107430696,-0.0006286648567765,0.0001077358610928,0.010666960850358,standing
1783090378554140200,7.19914013671875,-0.0736492831764742,-0.2237655007660388,0.0318143574118614,-0.0010200517717748,-0.0136085171252489,0.0142794083803892,standing
1783090378564184000,7.20918408203125,-0.091846289852634,-0.2570413820978254,0.011044541105628,-0.0069274753332138,-0.0201092939823865,0.0175657477229833,standing
1783090378574229000,7.21922900390625,-0.0787778417039662,-0.2456770344533026,0.0444955598086118,-0.0181432478129863,-0.010156225413084,0.0138939823955297,standing
1783090378584273700,7.229273681640625,-0.0574968610052019,-0.2329693093758076,0.0774357063800096,-0.0262661557644605,0.0049010217189788,0.0190826188772916,standing
1783090378594318600,7.239318603515625,-0.0307509659640491,-0.2247715360034257,0.1194043780595064,-0.0241143703460693,0.027717413380742,0.0218531694263219,standing
1783090378604362800,7.24936279296875,-0.0099023488005623,-0.2053832371834665,0.1377443368703126,-0.0188554264605045,0.0494030006229877,0.0201708506792783,standing
1783090378614406700,7.25940673828125,0.0374908321456983,-0.2068091052681207,0.0992044705957174,-0.0118684023618698,0.0545909143984317,0.0226464588195085,standing
1783090378624451600,7.26945166015625,0.0541912070559337,-0.1684990291614085,0.0366226344764232,-0.0090630277991294,0.0427299961447715,0.0230778902769088,standing
1783090378634495700,7.279495849609375,0.0871364681938663,-0.1770963232453912,-0.0128150579094886,-0.0033828446175903,0.0290419310331344,0.0276500061154365,standing
1783090378644540700,7.289540771484375,0.0091943101290613,-0.1989106071032583,-0.0570481673896312,-0.0047367960214614,0.0143527351319789,0.0300551056861877,standing
1783090378654584600,7.29958447265625,-0.0732616720983758,-0.2607349028535187,-0.0615630144655704,-0.0110823707655072,0.0110456049442291,0.0301264114677906,standing
1783090378664629800,7.309629638671875,-0.0552608455814421,-0.2838647993545979,0.0033113165050745,-0.034231100231409,0.0079952199012041,0.0141349295154213,standing
1783090378674673700,7.319673583984375,-0.0313378259412944,-0.2047664204593747,0.0545814850151538,-0.0584601759910583,0.0238762740045785,0.0032560515683144,standing
1783090378684717600,7.329717529296875,-0.1288156554074958,-0.1276636723607778,0.0909206263750791,-0.0820334106683731,0.0817126780748367,0.0074153766036033,standing
1783090378694762800,7.3397626953125,-0.1483372982835397,-0.1230525253035128,0.2949333789229393,-0.0101100876927375,0.1366220265626907,-0.0075500574894249,standing
1783090378704806700,7.349806640625,0.10418492588941,-0.1800588993780315,0.3956652052164077,0.0256889220327138,0.0656338781118393,-0.0181081593036651,standing
1783090378714851600,7.3598515625,0.082944605994597,-0.1986091399386525,-0.1335989076286554,0.0214957278221845,0.0240825898945331,-0.0061923107132315,standing
1783090378724895700,7.369895751953125,-0.0518031063430011,-0.170389738278836,-0.2097282075852155,0.0250398628413677,-0.0032787276431918,-0.0002036606892943,standing
1783090378734940700,7.379940673828125,0.01978646782469,-0.2378451717838645,-0.0771481216102838,0.002794663188979,-0.0148086119443178,0.0031150360591709,standing
1783090378744984600,7.389984619140625,-0.0474395773712545,-0.2670946471437811,-0.0103337624877691,-0.0237107146531343,-0.0260873660445213,0.0120664536952972,standing
1783090378755028700,7.40002880859375,0.0077650445109233,-0.2392291004229337,0.0359001654207706,-0.0241193827241659,-0.0412733219563961,0.0160518083721399,standing
1783090378765073700,7.41007373046875,0.0446538921754807,-0.2111953575283288,0.0249736977368593,-0.0183645579963922,-0.0413106083869934,0.0168166682124137,standing
1783090378775117600,7.42011767578125,-0.0244498199932277,-0.1416379833079874,0.05067220261693,-0.0116768721491098,-0.0201336070895195,0.0194472726434469,standing
1783090378785162800,7.430162841796875,0.0026203020336106,-0.1647945486202836,0.1695692156761884,0.0037907669320702,0.0047951773740351,0.005085377022624,standing
