time,seconds_elapsed,accel_x,accel_y,accel_z,gyro_x,gyro_y,gyro_z,label
1783085264355070200,0.0590703125,0.026784108159691,-0.0089280604083091,-0.2453559858053922,0.5097979307174683,-0.235784500837326,0.1737093031406402,walking
1783085264365114000,0.069114013671875,0.1108516537696123,-0.0292794321067631,0.0880003550142049,0.449521005153656,-0.2388079911470413,0.1921830177307129,walking
1783085264375158000,0.079157958984375,0.1485360722586512,-0.0316478417385369,0.2510328623980283,0.3827044367790222,-0.2432261705398559,0.2135391682386398,walking
1783085264385203200,0.089203125,0.0960587199158966,-0.0327845176182687,0.262214181625843,0.319453090429306,-0.2266135066747665,0.2075465619564056,walking
1783085264395247000,0.0992470703125,0.0835401607349514,-0.1146883093230426,0.0723772539466619,0.2413649410009384,-0.1776638031005859,0.1892035007476806,walking
1783085264405291000,0.109291015625,0.0115529290191829,-0.1440025204822421,-0.0830202285140752,0.1640547066926956,-0.123365081846714,0.1703699827194214,walking
1783085264415335200,0.119335205078125,-0.0612022183291614,-0.050843759791553,-0.0488414800584316,0.0908135175704956,-0.059819396585226,0.1675180047750473,walking
1783085264425379000,0.129379150390625,-0.0783621735751628,-0.0083643621109426,0.0421025271922349,0.0240208730101585,-0.0120763778686523,0.1766232550144195,walking
1783085264435423200,0.13942333984375,-0.0231514507457613,0.0481895189557224,0.3481874147266149,-0.0227370448410511,-0.0437584072351455,0.1939276754856109,walking
1783085264445467000,0.149466796875,0.1224484219305217,0.075161989294365,0.5784393549025059,0.0067614773288369,-0.1133199259638786,0.1972286701202392,walking
1783085264455511000,0.159510986328125,0.2073991801157593,-0.0305376885395497,0.5055038825511932,0.1010264605283737,-0.1467814743518829,0.1951271593570709,walking
1783085264465555200,0.16955517578125,0.1419524560846388,-0.0304381006225943,0.4159878622770309,0.1933627426624298,-0.1559231579303741,0.1937373131513595,walking
1783085264475599600,0.179599609375,0.0981654829367995,0.0907132672347128,0.4510375483483075,0.2468318194150924,-0.1751336008310318,0.1983067691326141,walking
1783085264485644500,0.18964453125,0.189396052043885,0.0842659907914698,0.5303893174827099,0.2467859387397766,-0.2083865702152252,0.2051211446523666,walking
1783085264495688400,0.1996884765625,0.2842987337924539,0.0758447108615189,0.5029319862365722,0.2085099220275879,-0.2249208092689514,0.2123369723558426,walking
1783085264505732600,0.209732666015625,0.3061350102864205,0.1655458053790032,0.3261486013978719,0.154564619064331,-0.209393560886383,0.2139093577861786,walking
1783085264515776500,0.219776611328125,0.3331229704551398,0.2668612767793238,0.1494628317147493,0.0978904291987419,-0.1750712692737579,0.2199310213327407,walking
1783085264525820400,0.2298203125,0.3227272486470639,0.2758464742023497,-0.0071101242661476,0.0529651679098606,-0.13603575527668,0.2312950938940048,walking
1783085264535864600,0.239864501953125,0.3013894231945276,0.2152009399078786,-0.0629115064650774,0.0271269101649522,-0.0847970619797706,0.2352456301450729,walking
1783085264545908500,0.249908447265625,0.2943579171225428,0.2253660678304731,-0.0373246452659368,0.0187638495117425,-0.017341049388051,0.2372070103883743,walking
1783085264555952600,0.25995263671875,0.2814202557466924,0.3110714437752962,-0.0353781873732805,0.0144761614501476,0.0554769672453403,0.2541329860687256,walking
1783085264565996300,0.269996337890625,0.2197828608706593,0.4385545719373971,-0.0991822587639093,0.0135984700173139,0.1513476222753524,0.2955585122108459,walking
1783085264576041500,0.28004150390625,0.2102697671160101,0.6385520974945277,-0.3002338234186172,0.0171540565788745,0.2374918311834335,0.3587856888771057,walking
1783085264586085600,0.290085693359375,0.2723996216841042,0.7241712564606219,-0.3759229783922433,0.0453540086746215,0.2725381255149841,0.429729551076889,walking
1783085264596129500,0.300129638671875,0.4036760777145624,0.5655234669670463,-0.3304892609506845,0.1166185960173606,0.2304053008556366,0.478933572769165,walking
1783085264606173400,0.31017333984375,0.5478124537095427,0.2643148802321404,-0.2132294937044382,0.2003613114356994,0.1562371402978897,0.487169086933136,walking
1783085264616217600,0.320217529296875,0.6022127369388938,-0.0638593087092042,0.0551619152516126,0.2444395571947097,0.0414093472063541,0.4612413346767425,walking
1783085264626261500,0.330261474609375,0.6075907767154276,-0.3579404547169804,0.4030804499089717,0.2219205796718597,-0.0862319618463516,0.4207240343093872,walking
1783085264636305700,0.3403056640625,0.5801439668633044,-0.6443003588229418,0.5319441457092762,0.178042858839035,-0.1728643327951431,0.368654191493988,walking
1783085264646349300,0.350349365234375,0.4904758247673511,-0.8855520511146634,0.3791600606173276,0.1276041567325592,-0.1878895461559295,0.298542708158493,walking
1783085264656393500,0.3603935546875,0.3196094088874757,-0.9845667712919414,0.1087795236706733,0.0939793661236763,-0.1718352138996124,0.2192827761173248,walking
1783085264666437600,0.370437744140625,0.0988639865949749,-0.9318843978963792,-0.1467114871799945,0.0891113951802253,-0.1208717748522758,0.1419799178838729,walking
1783085264676482600,0.380482666015625,-0.0684020667053759,-0.6784870713893324,-0.385451854237914,0.0969618633389473,-0.0295543726533651,0.0864777788519859,walking
1783085264686526500,0.3905263671875,-0.129018155709654,-0.2983824233982712,-0.5516454560011625,0.1060571521520614,0.0776446536183357,0.0737444534897804,walking
1783085264696570600,0.400570556640625,-0.0753247055754065,0.0807150203116238,-0.590624882736802,0.1203615218400955,0.1763259470462799,0.1050925180315971,walking
1783085264706614500,0.410614501953125,0.0761712394021451,0.3380875340599567,-0.5688596256524324,0.1392050385475158,0.2281485348939895,0.1670805513858795,walking
1783085264716658700,0.42065869140625,0.2942738921009004,0.3861288767166435,-0.3876724528968334,0.1495482325553894,0.2131610661745071,0.2204305976629257,walking
1783085264726702300,0.430702392578125,0.4174848228365183,0.2106003873098641,-0.2505424485325813,0.1578709185123443,0.1965222507715225,0.260903924703598,walking
1783085264736746500,0.44074658203125,0.3027214024506509,0.0536691194105893,-0.1734504410237073,0.1612824201583862,0.227846622467041,0.2868716120719909,walking
1783085264746790400,0.450790283203125,0.2571023915700614,-0.0818637519553303,-0.1315741238027811,0.1340370923280716,0.2576696872711181,0.3026708960533142,walking
1783085264756834600,0.46083447265625,0.1879031831376254,-0.2573735366616398,0.0863812293797731,0.0876171290874481,0.2400930970907211,0.3093858063220978,walking
1783085264766878700,0.470878662109375,0.1614120665751397,-0.4232962855942547,0.455326185452938,0.0579617395997047,0.1387002915143966,0.2884869873523712,walking
1783085264776922400,0.48092236328125,0.2275610936567187,-0.6904152634616941,0.9017705607920884,0.0595497824251651,-0.0187069103121757,0.2489835023880005,walking
1783085264786967600,0.490967529296875,0.1855637804046273,-0.8492683662690221,1.0767226385504007,0.0949348732829094,-0.1732551455497741,0.2345378696918487,walking
1783085264797011700,0.50101171875,-0.0199248899146914,-0.8296741696134209,0.931777576521039,0.1398645192384719,-0.2572658956050873,0.2334635555744171,walking
1783085264807055400,0.511055419921875,-0.2033794230803847,-0.8883861054968089,0.6177893685162067,0.1926557719707489,-0.3016306459903717,0.2133765369653701,walking
1783085264817099500,0.521099609375,-0.2589192317336797,-1.0734260812230407,0.4825532150745391,0.2338609993457794,-0.3234443068504333,0.1717031151056289,walking
1783085264827143400,0.531143310546875,-0.2334074815973639,-1.2002905660301446,0.4432102157235145,0.2255399078130722,-0.3001632988452911,0.1087854504585266,walking
1783085264837187600,0.5411875,-0.1666825543239712,-1.225916882456839,0.2483791330188512,0.1804310232400894,-0.2593953609466553,0.0583917833864688,walking
1783085264847231700,0.551231689453125,-0.1095657056123018,-1.1311518556132911,0.0960702642232179,0.1212634518742561,-0.2123653292655944,0.0249939821660518,walking
1783085264857275400,0.561275390625,0.0055202247262001,-0.9879255802005528,-0.0727934335321188,0.0548862889409065,-0.1548333317041397,0.0182814840227365,walking
1783085264867319600,0.571319580078125,0.0236390881322324,-0.826419551731646,-0.1930079589307308,-0.0027078222483396,-0.0980563908815383,0.0205846298485994,walking
1783085264877364700,0.58136474609375,0.0170456812165677,-0.7317014327697455,-0.2764765157341957,-0.0433157011866569,-0.045399572700262,0.0250313095748424,walking
1783085264887408400,0.591408447265625,0.0868264889292418,-0.7255766662791371,-0.2613578570574522,-0.0726203918457031,-0.0129779195412993,0.017570873722434,walking
1783085264897452500,0.60145263671875,0.1749798425480723,-0.7421207546491175,-0.0855897867411375,-0.090737871825695,-0.0176211409270763,0.0141324661672115,walking
1783085264907496400,0.611496337890625,0.2273005430243909,-0.7574152813494205,-0.0202010765075683,-0.0764568522572517,-0.0355735160410404,0.0211514662951231,walking
1783085264917540600,0.62154052734375,0.2087123085409402,-0.7778601034849881,-0.0598567950695753,-0.0308116041123867,-0.0519849769771099,0.0345341153442859,walking
1783085264927584500,0.63158447265625,0.1729382537178695,-0.7579662662956863,-0.1511795725047588,0.0392852500081062,-0.0580410733819007,0.0494258441030979,walking
1783085264937628400,0.64162841796875,0.0589757744513452,-0.6781410344306379,-0.2714882059276103,0.1030900701880455,-0.0362889058887958,0.0611429512500762,walking
1783085264947672600,0.651672607421875,-0.0140992525011301,-0.6211811298463493,-0.3450058620810508,0.1266233921051025,0.0136749316006898,0.0732268840074539,walking
1783085264957716500,0.661716552734375,-0.024837065745145,-0.6070132690884172,-0.3361982862472534,0.1044168844819068,0.0692423209547996,0.0836116150021553,walking
1783085264967760600,0.6717607421875,0.0667433397129178,-0.6772700968150049,-0.2283645189940929,0.0524319522082805,0.0991699248552322,0.0836659222841262,walking
1783085264977805600,0.6818056640625,0.1464344238042831,-0.7382112530551851,0.0257259774088859,-0.011356615461409,0.0965379253029823,0.0857080370187759,walking
1783085264987849500,0.691849365234375,0.1773475945927202,-0.6634444736234844,0.1789741728812456,-0.0569186955690383,0.0646307095885276,0.10105562210083,walking
1783085264997893600,0.7018935546875,0.2009424051918089,-0.4942788703121245,0.1642109035134315,-0.065014436841011,0.0331018082797527,0.1303765028715133,walking
1783085265007937500,0.7119375,0.1797425269052386,-0.3934571007128805,0.010302198305726,-0.0427391305565834,0.010449169203639,0.1639544069766998,walking
1783085265017981400,0.7219814453125,0.0523529953107237,-0.3705366457113996,-0.1324573363780975,0.0002663910854607,0.0053947563283145,0.1887447088956833,walking
1783085265028025600,0.732025634765625,-0.0786957894437015,-0.4145014961767941,-0.201799168151617,0.0533261820673942,0.0066132280044257,0.1983572989702224,walking
1783085265038069500,0.742069580078125,-0.1511936010301113,-0.5401957681607454,-0.0907441007643938,0.0981429144740104,0.0001268330961465,0.1921137869358062,walking
1783085265048113700,0.75211376953125,-0.1953337715297937,-0.6640338178187608,0.1296855335772037,0.1207788735628128,-0.0161052029579877,0.1759849935770034,walking
1783085265058157600,0.762157470703125,-0.1739484536737203,-0.7563101696517318,0.3930845410734415,0.1225663796067237,-0.0560246556997299,0.1652172952890396,walking
1783085265068201500,0.772201416015625,-0.1330927116721868,-0.7868243311852217,0.5439858811587095,0.1280702501535415,-0.0928876176476478,0.1581279039382934,walking
1783085265078246700,0.78224658203125,-0.1340234166510403,-0.7787508417796343,0.3729863404184579,0.1343337297439575,-0.0823196619749069,0.1564895361661911,walking
1783085265088290600,0.79229052734375,-0.1071915238268673,-0.7462543473225086,0.1106605151116847,0.1222188100218772,-0.0632524117827415,0.1486761271953582,walking
1783085265098334500,0.80233447265625,-0.0425134460806846,-0.7598411933220922,-0.0039729952841997,0.0890792310237884,-0.0487773269414901,0.1327589452266693,walking
1783085265108378400,0.81237841796875,0.0182259770423173,-0.8234478424444794,-0.0653489627450704,0.0367992520332336,-0.0241635963320732,0.11292265355587,walking
1783085265118422500,0.822422607421875,0.0368643342778086,-0.8635173294391483,-0.0145966806292533,-0.0200070366263389,-0.0156316235661506,0.0952086374163627,walking
1783085265128466700,0.832466796875,0.0282176480941474,-0.8817016592968254,0.1467997499853372,-0.0497850552201271,-0.0233731716871261,0.0833390057086944,walking
1783085265138510600,0.842510498046875,0.0354709802232682,-0.8889192625254392,0.1417711081683635,-0.0535209365189075,-0.0072991289198398,0.0789391994476318,walking
1783085265148554500,0.852554443359375,0.0531518906034529,-0.8260062947556376,-0.0688543405175209,-0.042269118130207,0.0263503678143024,0.0741346552968025,walking
1783085265158598400,0.862598388671875,0.0348253757961094,-0.7235960138559341,-0.2439496261388063,-0.0174710936844348,0.0771546959877014,0.0713263526558876,walking
1783085265168642600,0.872642578125,-0.0135112234801054,-0.6532047460947186,-0.2762859615981579,5.2840914577e-06,0.1138077899813652,0.0763672217726707,walking
1783085265178687500,0.8826875,0.0480040063209831,-0.690029844340682,-0.0721475368440151,0.0027627209201455,0.1137294918298721,0.0795315876603126,walking
1783085265188731400,0.8927314453125,0.1260344637237489,-0.8175965591330081,0.2551426358044147,-0.0316419787704944,0.0681837722659111,0.0584450401365757,walking
1783085265198775600,0.902775634765625,0.2337666702985763,-1.0065526853896678,0.5120885216385126,-0.1036354824900627,-0.0109746977686882,0.0061525432392954,walking
1783085265208819700,0.91281982421875,0.3508263849280774,-1.239565176320076,0.5225356813728809,-0.1899216026067733,-0.0377085655927658,-0.0449155941605567,walking
1783085265218863400,0.92286328125,0.35091947003901,-1.2091774176452308,0.2935246811687946,-0.2371530383825302,-0.0103251477703452,-0.0641859620809555,walking
1783085265228907500,0.932907470703125,0.2091616597436368,-0.9514525833278894,0.1906698713719844,-0.234843835234642,0.0318432673811912,-0.0438023246824741,walking
1783085265238951400,0.942951416015625,0.0712118634290993,-0.6803562993273139,0.2538748078256845,-0.1997822523117065,0.0671373456716537,0.0032022020313888,walking
1783085265248995600,0.95299560546875,0.0458335304141044,-0.5337281065165996,0.400673973289132,-0.1598336845636367,0.0942498594522476,0.058254774659872,walking
1783085265259039700,0.963039794921875,0.0872559663876891,-0.4115818093378096,0.5202233127772807,-0.1299106776714325,0.0744356736540794,0.1111355647444725,walking
1783085265269083400,0.97308349609375,0.1500434080816805,-0.3773037652261555,0.7137585104525089,-0.1124392375349998,0.022517092525959,0.1427290141582489,walking
1783085265279128600,0.983128662109375,0.2070674639433622,-0.4762042844392359,0.7852081281602382,-0.1090671420097351,0.0027449850458651,0.1642186045646667,walking
1783085265289172500,0.99317236328125,0.2085651551552116,-0.5482616587817669,0.5347527733892202,-0.1158212125301361,0.0424859300255775,0.1867412775754928,walking
1783085265299216400,1.00321630859375,0.1725178363487124,-0.6037670537088066,0.2198667397618293,-0.1276853233575821,0.1041852533817291,0.2120572924613952,walking
1783085265309260500,1.013260498046875,0.0662595017187297,-0.7028769778888673,0.150470547452569,-0.1430851370096206,0.157877042889595,0.2286864519119262,walking
1783085265319304400,1.023304443359375,0.0122574240267276,-0.9064525080632416,0.2583627668946981,-0.1540746688842773,0.1679544448852539,0.2173810601234436,walking
1783085265329348600,1.0333486328125,-0.0360005570553243,-1.1768091526776552,0.5676356368154287,-0.1684973388910293,0.1350705325603485,0.1750271171331405,walking
1783085265339392500,1.043392578125,0.024603110858798,-1.4100484381012617,0.8192769865006208,-0.1840778887271881,0.0594250410795211,0.1160072013735771,walking
1783085265349436400,1.0534365234375,0.1396573308847844,-1.4098060076475143,0.7867851682186127,-0.1905365288257599,0.0080079827457666,0.0794331729412078,walking
1783085265359480600,1.06348046875,0.1322559685871005,-1.1178919034805148,0.4836275663077831,-0.1728720515966415,0.0106466421857476,0.0785873532295227,walking
1783085265369524500,1.0735244140625,0.1811971096277236,-0.8169917251076548,0.171895612797141,-0.1572068631649017,0.0770382434129715,0.1109307780861854,walking
1783085265379569400,1.0835693359375,0.3527196513287723,-0.6876753901690245,-0.1849970864325761,-0.1649547964334488,0.1160479635000228,0.1848784983158111,walking
1783085265389613600,1.093613525390625,0.2808455245986581,-0.7304746674537659,-0.1220171909064054,-0.1952456682920456,0.0839765146374702,0.2579113841056824,walking
1783085265399657500,1.103657470703125,0.1064239004552364,-0.9540060672029852,0.1573667367070913,-0.219773381948471,0.0295622739940881,0.2932060062885284,walking
1783085265409701600,1.11370166015625,-0.040278526635468,-1.2691153881922363,0.1693675556242465,-0.2087278366088867,-0.0074739041738212,0.2887362837791443,walking
1783085265419745500,1.12374560546875,-0.2335137184508144,-1.533585970442742,-0.1424813022643327,-0.135634183883667,0.0011720480397343,0.2651510834693908,walking
1783085265429789400,1.13378955078125,-0.3974297306708991,-1.6244865769430994,-0.5784720881283283,-0.007478435523808,0.0346005149185657,0.2202540934085846,walking
1783085265439833600,1.14383349609375,-0.4461700884424149,-1.613644280411303,-0.7413444365143775,0.1240300610661506,0.0553577244281768,0.1684518903493881,walking
1783085265449877500,1.15387744140625,-0.3439744732066989,-1.503812032817304,-0.5946686051696538,0.2039251774549484,0.0355450697243213,0.1458182483911514,walking
1783085265459921700,1.163921630859375,-0.1990019386485219,-1.2849167684361338,-0.340355990448594,0.2069412171840667,-0.0397523492574691,0.1579020768404007,walking
1783085265469965800,1.1739658203125,-0.1088467436879873,-1.1435997607108206,-0.1016886886268854,0.1628871113061905,-0.1362302154302597,0.1722694933414459,walking
1783085265480010800,1.1840107421875,-0.040058454144001,-1.2561083148419856,-0.0356453138768672,0.1092254891991615,-0.2007492780685424,0.1666425019502639,walking
1783085265490055000,1.194054931640625,-0.0384784914761781,-1.3855430885285138,-0.1268634618937969,0.0953462421894073,-0.2225684970617294,0.1488750278949737,walking
1783085265500098800,1.204098876953125,-0.1553195949189365,-1.3375228617250918,-0.4465554344981908,0.1292879581451416,-0.1628111600875854,0.1308371573686599,walking
1783085265510142700,1.214142822265625,-0.4228158086009323,-1.1497407476838677,-0.8461573946416378,0.1739948391914367,-0.0155421569943428,0.1275372207164764,walking
1783085265520186600,1.2241865234375,-0.7243263739570975,-0.9181849583677948,-1.1775228539049625,0.1659550219774246,0.1877427995204925,0.153583750128746,walking
1783085265530230800,1.234230712890625,-0.95792324064672,-0.6594380144611001,-1.3040496311902998,0.0705035924911499,0.4030164778232574,0.1847440600395202,walking
1783085265540274700,1.244274658203125,-0.9819783622339368,-0.4560569108802825,-1.3431880478799345,-0.0727917850017547,0.5337414741516113,0.1888929903507232,walking
1783085265550318600,1.254318603515625,-0.6627741731464862,-0.363654229253903,-1.2433797661721706,-0.2124355435371399,0.5305885672569275,0.1685064136981964,walking
1783085265560362800,1.26436279296875,-0.3622600714817643,-0.0723363374143838,-1.124781443798542,-0.2900997102260589,0.4274062514305115,0.1546923220157623,walking
1783085265570406700,1.27440673828125,-0.1693454899229109,0.3394108185529708,-0.9725450557172298,-0.2847656607627868,0.2713839113712311,0.1402161866426468,walking
1783085265580451800,1.284451904296875,-0.0676917264789342,0.5612751618728041,-0.8337234450042247,-0.1961290091276168,0.0871211066842079,0.1299398392438888,walking
1783085265590495700,1.294495849609375,-0.2150264601238072,0.6555610999625175,-0.464912344443798,-0.0325637571513652,-0.1345681399106979,0.1106030121445655,walking
1783085265600539600,1.30453955078125,-0.4898344581238925,0.5094452405881137,0.0100257194519042,0.1264522522687912,-0.2485892474651336,0.0686829984188079,walking
1783085265610583800,1.314583740234375,-0.9512471238836644,0.1267934653975069,-0.3317512437105178,0.2184265702962875,-0.2130068242549896,0.0085058799013495,walking
1783085265620627700,1.324627685546875,-1.6450709536798298,-0.3033714638572186,-0.8580331258744001,0.2325197458267212,-0.0443461649119854,-0.079537957906723,walking
1783085265630671600,1.334671630859375,-2.1354086851507423,-0.6543922023136168,-1.2467483658224343,0.1748493909835815,0.1969770193099975,-0.1966526806354522,walking
1783085265640715800,1.3447158203125,-2.3847917345151304,-0.917750147147104,-1.2215496271580455,0.0613374933600425,0.3969828188419342,-0.3498909771442413,walking
1783085265650759700,1.354759765625,-2.2968441326014695,-1.2061507633004336,-0.9420622391700744,-0.0825548991560936,0.5403533577919006,-0.5107902884483337,walking
1783085265660803800,1.364803955078125,-1.948057290676981,-1.291106270726025,-0.8477297585248946,-0.2132878899574279,0.6322777271270752,-0.6456876993179321,walking
1783085265670847700,1.37484765625,-1.507683175162226,-0.9435781236257405,-0.7504553792089224,-0.3038581311702728,0.6942809224128723,-0.7187799215316772,walking
1783085265680892700,1.384892578125,-1.0390624046545476,-0.1371017281178385,-0.6293652400195598,-0.3529729545116424,0.7095818519592285,-0.7407611608505249,walking
1783085265690936800,1.394936767578125,-0.3809039816752076,0.7036502272836863,-0.3523866199821233,-0.3733657598495483,0.6437855958938599,-0.7022119760513306,walking
1783085265700980700,1.404980712890625,0.3459885895080864,1.3173615327060222,0.0374105699837207,-0.3504263460636139,0.5284110903739929,-0.607503354549408,walking
1783085265711024600,1.415024658203125,0.9016898237060756,1.6828867434635757,0.1685439642816782,-0.2907959818840027,0.4141712188720703,-0.4755271375179291,walking
1783085265721068500,1.425068603515625,1.2237770208839327,1.8989000226676465,0.1954962686151266,-0.2073999047279358,0.3016923367977142,-0.316605657339096,walking
1783085265731112700,1.43511279296875,1.2741168497413395,2.185958138170838,0.3334299905776977,-0.0950927659869194,0.1655203253030777,-0.1487298309803009,walking
1783085265741156900,1.445156982421875,1.1673523922201243,2.294304384990782,0.5999883388876914,0.0412168726325035,0.0354701690375804,0.0046687768772244,walking
1783085265751200800,1.45520068359375,1.0007457526765764,2.1554342589609323,0.8177776878535747,0.1953970938920974,-0.1114803999662399,0.1306047588586807,walking
1783085265761244700,1.46524462890625,0.9043749711368232,1.8250673092156648,1.0935597915828228,0.3428134322166443,-0.2567683756351471,0.2203477025032043,walking
1783085265771288600,1.47528857421875,0.7926691847559064,1.3829314447253942,1.2477514053851366,0.4422043859958648,-0.343625545501709,0.2679705619812011,walking
1783085265781333800,1.485333740234375,0.6212324947074055,1.0324543846916407,1.198743921110034,0.4509171843528747,-0.335811048746109,0.3050723969936371,walking
1783085265791377700,1.495377685546875,0.3369930168215185,1.1437993749361484,1.022870052331686,0.3830823898315429,-0.2645400464534759,0.3631903231143951,walking
1783085265801421600,1.505421630859375,0.0529042725179344,1.3086394431985915,1.0511895533651112,0.2550514638423919,-0.1559011936187744,0.4381939768791199,walking
1783085265811465700,1.5154658203125,-0.0929084391914308,1.2412430464044213,1.1822118885040285,0.0972850173711776,-0.0791692659258842,0.4945852756500244,walking
1783085265821510000,1.525510009765625,0.029186858452484,0.8806985466688871,1.564661638316512,-0.0649254545569419,-0.0792997553944587,0.5194962024688721,walking
1783085265831553800,1.5355537109375,0.1812032471075653,0.4152921350978314,1.982691820076108,-0.2176794707775116,-0.1359778791666031,0.5342622399330139,walking
1783085265841597700,1.54559765625,0.252186489412561,0.09182824273929,2.0782763466089964,-0.3276768028736114,-0.1863883286714553,0.5310786962509155,walking
1783085265851641600,1.5556416015625,0.2965827535651624,-0.0921931305289268,1.8205489550083875,-0.3862964808940887,-0.194405511021614,0.5033303499221802,walking
1783085265861685800,1.565685791015625,0.3218793996460735,-0.0605634089689701,1.3692770133823156,-0.4341215193271637,-0.1418280601501464,0.4480612277984619,walking
1783085265871730000,1.57572998046875,0.4376682175569236,0.0479655009415,0.8049269741088152,-0.4814776182174682,-0.0632273778319358,0.4068382680416107,walking
1783085265881774600,1.585774658203125,0.5487245270531624,0.1913504740472882,0.3545563652366399,-0.5189411044120789,0.0193556509912014,0.3926119208335876,walking
1783085265891818800,1.59581884765625,0.6691505032453685,0.3679197777438908,0.1567225935846567,-0.5317273736000061,0.0529844462871551,0.3852431774139404,walking
1783085265901862700,1.605862548828125,0.7791467092294245,0.3457459398586303,0.1497808116227388,-0.5054827332496643,0.0568865090608596,0.3737721443176269,walking
1783085265911906800,1.61590673828125,0.7625256831657141,0.0705604868482798,0.0819938080757856,-0.4521079063415527,0.056099347770214,0.3462996184825897,walking
1783085265921950700,1.62595068359375,0.687244451405853,-0.1718403754785656,-0.0755956314712762,-0.3784398138523102,0.0582490526139736,0.3161401152610779,walking
1783085265931994600,1.63599462890625,0.4961208449169993,-0.2850884228654206,-0.1123509524166583,-0.2966571748256683,0.0217913798987865,0.2872684597969055,walking
1783085265942038800,1.646038818359375,0.3184491329364478,-0.4119204667076468,0.1646919650286436,-0.2380529791116714,-0.0364314466714859,0.2738650143146515,walking
1783085265952082700,1.656082763671875,0.2232066978394985,-0.4772042552620172,0.3949515039891004,-0.2060250788927078,-0.0942368954420089,0.2832750678062439,walking
1783085265962126800,1.666126953125,0.1843996319960802,-0.4774165828384458,0.5155483067035674,-0.2139141708612442,-0.1375500112771988,0.3007944226264953,walking
1783085265972170800,1.676170654296875,0.1435260620769113,-0.4492570946723222,0.5414730215549469,-0.2566131949424743,-0.140124887228012,0.3233466446399688,walking
1783085265982215700,1.686215576171875,0.1114588989477604,-0.481690899156779,0.4153407965451479,-0.3067804872989654,-0.1142019405961036,0.3594910800457001,walking
1783085265992259800,1.696259765625,0.0398641736809164,-0.5141686889134347,0.3278448839217424,-0.3523956835269928,-0.0744028687477111,0.4021854102611542,walking
1783085266002303700,1.7063037109375,0.0059375733554363,-0.5575153709478676,0.2711094357430935,-0.3907366693019867,-0.0181851405650377,0.4400896430015564,walking
1783085266012347600,1.71634765625,0.0484112719476223,-0.6691957306265831,0.1554074193328619,-0.4297882616519928,0.0337680839002132,0.4744336605072021,walking
1783085266022391800,1.726391845703125,0.0757588592089712,-0.7941470752887427,0.0911117650330066,-0.4634223878383636,0.0571477077901363,0.5006298422813416,walking
1783085266032435700,1.736435791015625,0.0971548445895314,-0.9811479027591644,0.0054161798298358,-0.4860470294952392,0.0801027491688728,0.5131102800369263,walking
1783085266042479900,1.74647998046875,0.0449066978927701,-1.227252222713828,-0.2233458140492439,-0.4726942181587219,0.0949083268642425,0.5117062330245972,walking
1783085266052523800,1.756523681640625,-0.09841171278283,-1.483508811109513,-0.4696183301776647,-0.3933791220188141,0.1284271329641342,0.4771100580692291,walking
1783085266062567700,1.766567626953125,-0.2240671140611171,-1.6835867084264755,-0.6352642349302768,-0.2695088386535644,0.1745195239782333,0.4198544919490814,walking
1783085266072611800,1.77661181640625,-0.2522078975267708,-1.7383647389270365,-0.4870119480490684,-0.1382425725460052,0.1858049482107162,0.3568151593208313,walking
1783085266082656500,1.786656494140625,-0.2767231109064072,-1.7088012291818857,-0.0576654225051403,-0.0441701374948024,0.1472266614437103,0.3045596778392792,walking
1783085266092700700,1.79670068359375,-0.2312203468166291,-1.6255426618672906,0.3901975874602794,-0.0164100863039493,0.0731903836131095,0.2675018310546875,walking
1783085266102744800,1.806744873046875,-0.1903808252975344,-1.5425456680983305,0.6306248846918344,-0.0453029870986938,-0.0369038954377174,0.2285424321889877,walking
1783085266112788700,1.816788818359375,-0.1379794608004391,-1.5243739054612817,0.7096978368848562,-0.0993700101971626,-0.1054382771253585,0.1890049278736114,walking
1783085266122833000,1.8268330078125,-0.1157451979648321,-1.4740227514922617,0.2693207987606525,-0.1400383412837982,-0.1154088824987411,0.1500378102064132,walking
1783085266132876500,1.83687646484375,0.0526074084632098,-1.377250038088113,-0.1727010839611291,-0.1439754366874694,-0.1032381206750869,0.1079283505678176,walking
1783085266142920700,1.846920654296875,0.2810148898161947,-1.2998964570336042,-0.505244939354062,-0.1025030985474586,-0.0733665078878402,0.0641696825623512,walking
1783085266152964900,1.85696484375,0.4674878209549933,-1.1587481569387017,-0.7537690338015556,-0.0351754277944564,-0.0234819613397121,0.0329786725342273,walking
1783085266163008800,1.8670087890625,0.5682230813145637,-0.9664103523544968,-0.8494681266248225,0.0350515991449356,0.0017144717276096,0.0146822230890393,walking
1783085266173053700,1.8770537109375,0.6334294937837869,-0.8991882892139256,-0.6340186187833547,0.0854071155190467,-0.0087508894503116,0.0065658460371196,walking
1783085266183097900,1.887097900390625,0.6931576940376312,-0.9171049080461264,-0.2880658312410116,0.1068692654371261,-0.0715141370892524,-0.0038974473718553,walking
1783085266193141800,1.897141845703125,0.7233063832595944,-1.018919415009767,0.0058721069037914,0.105032242834568,-0.1461343914270401,-0.0184372216463089,walking
1783085266203186000,1.90718603515625,0.719110977396369,-1.0546109061159192,0.0348889425516128,0.0996603816747665,-0.2122771888971328,-0.0246442519128322,walking
1783085266213229600,1.9172294921875,0.6335843190193176,-0.992801515673846,-0.1333563310444355,0.0977796912193298,-0.2498919367790222,-0.0279438011348247,walking
1783085266223273700,1.927273681640625,0.5724751858010888,-0.9902866102434694,-0.3679594521671533,0.1005914583802223,-0.2745378911495209,-0.0371335707604885,walking
1783085266233318000,1.93731787109375,0.5327769432716072,-1.0020819697163998,-0.5703969182223081,0.1070518717169761,-0.2798143327236175,-0.0509759858250618,walking
1783085266243361800,1.94736181640625,0.4742485472615808,-1.0283085901238025,-0.734264122864604,0.1135209575295448,-0.2616398632526397,-0.0637772679328918,walking
1783085266253405700,1.95740576171875,0.3823189630396664,-1.0692693999350071,-0.9449076917290689,0.1144856661558151,-0.2141712307929992,-0.0835829377174377,walking
1783085266263449600,1.96744970703125,0.2853323146238923,-1.155455399003625,-1.0700836389273405,0.1156356185674667,-0.1976473778486251,-0.110657162964344,walking
1783085266273494800,1.977494873046875,0.2108957169946283,-1.3326083478070794,-0.9802233352601528,0.1301551759243011,-0.1894536316394806,-0.140124499797821,walking
1783085266283539000,1.9875390625,0.1301123806871473,-1.331114455987513,-1.199314414474368,0.174299731850624,-0.1366756409406662,-0.1407327651977539,walking
1783085266293582600,1.99758251953125,-0.0857196967311203,-0.9520124091677368,-1.704363538995385,0.2397584915161132,-0.0427527241408824,-0.1334852576255798,walking
1783085266303626800,2.007626708984375,-0.138057056081295,-0.4513485139936208,-2.1296815396755933,0.3178375661373138,0.0225655622780323,-0.1271610558032989,walking
1783085266313670700,2.017670654296875,-0.0188218240436166,-0.1572701444648206,-2.0262007069349286,0.3838586807250976,0.0102167539298534,-0.1280091702938079,walking
1783085266323714800,2.02771484375,0.0225611567024141,-0.177471951624751,-1.669488040447235,0.409790426492691,-0.0136089501902461,-0.1467431634664535,walking
1783085266333758700,2.0377587890625,-0.1892863811243325,-0.2590424197219312,-1.485130420961976,0.4126835167407989,-0.0163280442357063,-0.1809688061475753,walking
1783085266343802600,2.047802734375,-0.4769998917963355,-0.2610837162911892,-1.2580588643878698,0.397549569606781,0.0119459386914968,-0.237628623843193,walking
1783085266353846800,2.0578466796875,-0.5375887274675071,-0.1786066547431051,-0.9651566990315914,0.3543916642665863,0.0326444320380687,-0.2931272387504577,walking
1783085266363890700,2.067890625,-0.3735388597346842,-0.0464139606505632,-0.7082908926963806,0.2910443842411041,0.0192543230950832,-0.326513409614563,walking
1783085266373934800,2.077934814453125,-0.0821511905945837,0.1133123447947204,-0.5447732321441173,0.2273552566766739,-0.0320124067366123,-0.3538996279239654,walking
1783085266383979800,2.087979736328125,0.3567538752809167,0.2643400877386331,-0.5775216555356979,0.203662171959877,-0.0907817110419273,-0.3753353953361511,walking
1783085266394023700,2.098023681640625,0.7857084788978099,0.4277646631799638,-0.6350152286052704,0.2374714761972427,-0.1470799297094345,-0.3812081515789032,walking
1783085266404067800,2.10806787109375,1.1428805795907973,0.7220040684893727,-0.3760089031100272,0.2971654236316681,-0.2331636846065521,-0.3536082208156585,walking
1783085266414111500,2.118111572265625,1.419326992447674,1.073859796465188,0.0306271934539079,0.3552526235580444,-0.3511204421520233,-0.2863709330558777,walking
1783085266424155600,2.12815576171875,1.615030912464112,1.3715220158301291,0.4294570001810789,0.397315114736557,-0.4837200045585632,-0.1801139861345291,walking
1783085266434199800,2.13819970703125,1.6502471872739493,1.638381539043784,0.8294447447717189,0.4274219572544098,-0.6361519694328308,-0.0509564206004142,walking
1783085266444243700,2.14824365234375,1.6278601450294254,1.7569488817572592,1.3069190491467713,0.4493544101715088,-0.8077040314674377,0.078654833137989,walking
1783085266454288000,2.158287841796875,1.4390940614521504,1.7003008196011185,1.6374802062898874,0.4638692438602447,-0.926181435585022,0.1946122050285339,walking
1783085266464331500,2.16833154296875,1.0587690487086772,1.4983508448019622,1.5527052430629729,0.4844690561294555,-1.002407193183899,0.2716118991374969,walking
1783085266474376000,2.1783759765625,0.7172998363211751,1.2969355614013969,1.5279291137248276,0.5061310529708862,-1.0240802764892578,0.3206230401992798,walking
1783085266484420000,2.188420166015625,0.4442855898700654,1.2145777423188089,1.3743991787016392,0.5115545988082886,-0.9686691761016846,0.3424945175647735,walking
1783085266494464000,2.198464111328125,0.2077833571277558,1.0656304589107632,1.1216156732439997,0.4759193062782287,-0.8194054365158081,0.3428455591201782,walking
1783085266504508000,2.2085078125,-0.1876166212812066,0.8186722255405038,0.6403004755318165,0.3590086698532104,-0.4819639921188354,0.3100915849208832,walking
1783085266514552000,2.218552001953125,-0.708367611194402,0.5245242248415947,-0.3678606679677963,0.1631215661764145,-0.0290329288691282,0.2195589393377304,walking
1783085266524596000,2.228595947265625,-1.1023578689359128,0.2290719366110861,-1.1224030242294072,-0.051266636699438,0.3792866766452789,0.071501038968563,walking
1783085266534640000,2.23864013671875,-1.249208472325653,-0.0946454921171069,-1.287271514868736,-0.2176836282014846,0.6615371108055115,-0.1114317923784256,walking
1783085266544684000,2.24868408203125,-1.1368787088274954,-0.5688306187536567,-1.1125327876001596,-0.3043913543224334,0.8282672166824341,-0.2627723217010498,walking
1783085266554728000,2.25872802734375,-1.055708053702861,-0.965580404336378,-0.881605140119791,-0.3108453154563904,0.9426740407943726,-0.3618015646934509,walking
1783085266564772000,2.268772216796875,-1.1054353766851126,-0.9801275467354804,-0.6875181537806987,-0.259202092885971,0.9763329029083252,-0.4339798986911773,walking
1783085266574817000,2.278817138671875,-1.1653776580810546,-0.7928171418592334,-0.3306593568205833,-0.1700808107852935,0.9246656894683838,-0.4940295815467834,walking
1783085266584861000,2.28886083984375,-1.1661262844912708,-0.6584381897687912,-0.0954185223162174,-0.0619271770119667,0.8342623114585876,-0.532238245010376,walking
1783085266594905000,2.298905029296875,-1.1667606368720531,-0.5614811327736824,-0.0854085849553346,0.0418937318027019,0.7521845102310181,-0.5244287848472595,walking
1783085266604949000,2.308948974609375,-1.1348144697740674,-0.3424609999038279,0.0080015201479196,0.1271747946739196,0.6293835043907166,-0.4870233535766601,walking
1783085266614993200,2.3189931640625,-0.9976033629976212,-0.242652645130828,0.2707072846829891,0.1858038157224655,0.4756057262420654,-0.4407951831817627,walking
1783085266625037000,2.329037109375,-0.7985748286031186,-0.2867918657824397,0.4296083913505077,0.2267163693904876,0.3329154253005981,-0.4005806744098663,walking
1783085266635081000,2.3390810546875,-0.6300190277531743,-0.2554398651853203,0.5303676901727914,0.2566621601581573,0.2100535035133361,-0.364288181066513,walking
1783085266645124900,2.349124755859375,-0.5011413034275174,-0.1674921171411871,0.70644555709064,0.2878845334053039,0.1257167756557464,-0.3382192850112915,walking
1783085266655169000,2.3591689453125,-0.3723397130779922,-0.0705533995203673,0.8435054188281297,0.3308264017105102,0.0626036524772644,-0.3120078444480896,walking
1783085266665213200,2.369213134765625,-0.2460441142000257,0.0784722828861325,1.095087147280574,0.3738521635532379,0.0198207721114158,-0.2786884903907776,walking
1783085266675257900,2.3792578125,-0.1308519470080733,0.2492654143340885,1.3542735055178403,0.3866029679775238,-0.0050159408710896,-0.2334600239992141,walking
1783085266685302000,2.389302001953125,-0.0194921975858509,0.3790966399922966,1.5107190357267857,0.3461791276931762,-0.0050492300651967,-0.1845436096191406,walking
1783085266695346200,2.39934619140625,0.1428701554514467,0.4112139258734881,1.5136714557915925,0.2686572968959808,-0.0039808396250009,-0.1428959518671035,walking
1783085266705390000,2.40939013671875,0.2610967219032347,0.2912240030109882,1.528943259203434,0.1697435081005096,-0.0039531430229544,-0.1184209585189819,walking
1783085266715434000,2.41943408203125,0.3763924956001341,0.1652661847200244,1.5316221230238676,0.0769456624984741,-0.0138997118920087,-0.1079804822802543,walking
1783085266725478000,2.429477783203125,0.5250353892341256,0.1153662816498428,1.520101196578145,-0.0002756209578365,-0.027009654790163,-0.0842871367931366,walking
1783085266735522000,2.43952197265625,0.5771271032601595,0.1864699354641139,1.414595580011606,-0.0468567609786987,-0.0433785654604435,-0.0338247120380401,walking
1783085266745566200,2.449566162109375,0.5063094998456538,0.2473413874689489,1.2452818004012107,-0.0507511012256145,-0.0545055195689201,0.0082335239276289,walking
1783085266755610000,2.459610107421875,0.3431168334640562,0.1328433400209993,1.1444354078173635,-0.0284864865243434,-0.0396671257913112,0.027823157608509,walking
1783085266765655000,2.469655029296875,0.1186100128114223,-0.1229316023375838,1.03588034055233,0.0036078004632145,0.0004792278632521,0.0280657708644866,walking
1783085266775699200,2.47969921875,-0.1060327091805636,-0.3734166215945035,0.9386305111557244,0.0311355665326118,0.0558575317263603,0.0144474320113658,walking
1783085266785743000,2.4897431640625,-0.265897546313703,-0.5686209945909678,0.8226245433628558,0.0155670531094074,0.1233203932642936,0.0119178220629692,walking
1783085266795787000,2.499787109375,-0.4587681426003575,-0.7014032520744949,0.7104243975937367,-0.0349385552108287,0.1738010197877884,0.0243120267987251,walking
1783085266805831000,2.509830810546875,-0.5906229099754243,-0.7308510264854877,0.6376666198968887,-0.0987753197550773,0.2058441638946533,0.0621467567980289,walking
1783085266815875000,2.519875,-0.8024534966673702,-0.7156699700970203,0.5392752192497253,-0.152403250336647,0.218422532081604,0.1087408140301704,walking
1783085266825919000,2.5299189453125,-0.8579690476622432,-0.6310433292996138,0.3903162454038858,-0.164988026022911,0.2104333192110061,0.1565698534250259,walking
1783085266835963100,2.539963134765625,-0.4430496913995593,-0.5035111012987792,0.3032318361908197,-0.1455786824226379,0.2151646465063095,0.1262314319610595,walking
1783085266846007000,2.550007080078125,0.2251956066343933,-0.8877413047872483,0.2249491575926542,-0.1004343777894973,0.1923016756772995,0.091747760772705,walking
1783085266856051000,2.560051025390625,0.2654841432072222,-0.9764088915385304,0.3069903119415044,-0.0493258349597454,0.1227341070771217,0.1127114221453666,walking
1783085266866096000,2.57009619140625,0.2297542197868227,-0.606749065194279,0.3675070322245359,-0.0134277567267417,0.0605149418115615,0.1939135938882827,walking
1783085266876140000,2.58014013671875,0.2088490135978907,-0.3820619195386767,0.1844482203781604,0.020963329821825,-0.0226781517267227,0.3113428354263305,walking
1783085266886184000,2.590183837890625,0.0933493878919631,-0.3852624691456556,-0.014175824868679,0.0758739784359932,-0.104774884879589,0.4141680002212524,walking
1783085266896228000,2.60022802734375,-0.0344549350485205,-0.5724627647109329,-0.2330395250678062,0.1403760313987732,-0.193574920296669,0.4836244881153106,walking
1783085266906272000,2.61027197265625,-0.2758298153284937,-0.8780882180400192,-0.4114525569349527,0.1807964295148849,-0.2942586839199066,0.5199428200721741,walking
1783085266916316200,2.620316162109375,-0.5841808211639523,-1.200059533753246,-0.5531278035134076,0.2037629783153534,-0.4091603457927704,0.5274910926818848,walking
1783085266926360000,2.630360107421875,-0.7681089631907642,-1.535088630090654,-0.7540320686519145,0.2149770110845565,-0.4778443276882171,0.501171886920929,walking
1783085266936404000,2.640404052734375,-0.927581293874979,-1.810000234595686,-1.050966266003251,0.2549868524074554,-0.5223663449287415,0.4514093697071075,walking
1783085266946448100,2.6504482421875,-1.1373182692885395,-1.848405222444236,-0.9296575156271456,0.3147250115871429,-0.5536690950393677,0.3829269707202911,walking
1783085266956492000,2.660491943359375,-1.2978271034136413,-1.732493654936552,-0.8820616517156362,0.3526360690593719,-0.5322215557098389,0.2908594012260437,walking
1783085266966537000,2.670536865234375,-1.360556823571026,-1.5600968146190046,-0.9873696998834608,0.3511098027229309,-0.4720785915851593,0.2017683833837509,walking
1783085266976581000,2.6805810546875,-1.4562449566088616,-1.3810701808981596,-1.0700549973547455,0.2959132492542267,-0.3476474583148956,0.1420095413923263,walking
1783085266986625000,2.690625,-1.7573142079383133,-1.1799286729376763,-1.501532689708471,0.1877111494541168,-0.079629048705101,0.1284127682447433,walking
1783085266996669000,2.7006689453125,-2.0999790598511696,-0.9282014715999364,-2.471203651294112,0.0418602004647254,0.3724896013736725,0.1088741272687912,walking
1783085267006712800,2.710712890625,-1.8994595562465488,-0.6367426369197666,-3.631603520962596,-0.1060435101389885,0.8390578627586365,0.0546785332262516,walking
1783085267016757000,2.720757080078125,-1.3558591672740876,-0.2836988682031631,-3.920643750193715,-0.2307076156139373,1.182444453239441,0.0135522633790969,walking
1783085267026801200,2.73080126953125,-0.857189879983291,0.288460712310113,-3.6431034046202897,-0.3129897117614746,1.411734938621521,0.0253516659140586,walking
1783085267036845000,2.740844970703125,-0.4503234817948192,1.095017589175701,-3.203914699497819,-0.3181223273277282,1.4899437427520752,0.0727582052350044,walking
1783085267046889000,2.750888916015625,-0.0831343564130365,1.6788523733809588,-2.20149005382359,-0.2346220910549163,1.4062649011611938,0.1676269322633743,walking
1783085267056932900,2.760932861328125,0.0841561737414449,2.018353792826831,-0.9852321033328773,-0.1136169731616973,1.2114648818969729,0.261040061712265,walking
1783085267066978000,2.77097802734375,0.1656398403380066,2.031292915507406,-0.0623269845753908,-0.0013423631899058,0.9707261323928832,0.2817544043064117,walking
1783085267077022000,2.78102197265625,0.1374620858628302,1.5997691920548676,0.5481546912759542,0.0958167314529419,0.6871851086616516,0.2221281230449676,walking
1783085267087065900,2.79106591796875,-0.2402337474208325,0.9829141087140888,1.1251368331074714,0.1873447746038437,0.3965807557106018,0.1030869483947753,walking
1783085267097110000,2.801110107421875,-0.8002506528608501,0.4276546999994665,1.52740245950222,0.2638626098632812,0.1626126021146774,-0.0524521991610527,walking
1783085267107154200,2.811154296875,-1.473753579162061,0.0045189387291669,1.6564356666505335,0.2909182012081146,0.0489464923739433,-0.2137076705694198,walking
1783085267117198000,2.821197998046875,-2.211419619424641,-0.3702108112905174,1.5154548320770262,0.2889611423015594,-0.0626165196299552,-0.4322897493839264,walking
1783085267127242000,2.831241943359375,-2.215833490344137,-0.8318181959047913,1.9008803828299043,0.2747704982757568,-0.1373371034860611,-0.6990061402320862,walking
1783085267137286000,2.841285888671875,-1.6770368483915925,-0.8985374240897596,2.067854905837774,0.2218948304653167,-0.1189313977956771,-0.9314020872116088,walking
1783085267147330000,2.851330078125,-1.1713636006228625,-0.3659515098782256,1.7926263443380592,0.1124903038144111,-0.014470238238573,-1.048850417137146,walking
1783085267157375000,2.861375,-0.6628173547010868,0.6014429216101765,1.5148200413048267,-0.0517283342778682,0.0842272639274597,-1.0404618978500366,walking
1783085267167419000,2.8714189453125,-0.0844783549005165,1.6237980101570486,1.4250111755639314,-0.2279012352228164,0.1165425926446914,-0.9355664253234864,walking
1783085267177463000,2.881463134765625,0.5388340878861024,2.2412819659858942,1.3127525776058435,-0.3495498597621918,0.1367992609739303,-0.7893921136856079,walking
1783085267187507000,2.8915068359375,1.1364653057210146,2.4147400057941675,0.954133200713992,-0.38248011469841,0.1750845909118652,-0.6305798292160034,walking
1783085267197551000,2.901551025390625,1.583372330135852,2.3662024771183727,0.7231424248695373,-0.3396688103675842,0.1734882295131683,-0.4727710783481598,walking
1783085267207595000,2.911594970703125,1.828084318949282,2.289598545387387,0.7441109786182641,-0.2589052617549896,0.1897729188203811,-0.3296874463558197,walking
1783085267217639000,2.921638916015625,1.986395350769162,2.2379754717864095,0.5020084416508674,-0.1833186745643615,0.2355559319257736,-0.1891693323850631,walking
1783085267227683000,2.93168310546875,2.0238513673298058,2.2183324675530196,0.4316881202340126,-0.1306485384702682,0.2386526465415954,-0.0534804873168468,walking
1783085267237727000,2.94172705078125,1.849526773820072,2.2339560070119795,0.6622106940448284,-0.1095284223556518,0.2677363157272339,0.0940166637301445,walking
1783085267247771100,2.951771240234375,1.4316197800487278,2.1941168947070837,0.6635591860443353,-0.1328119039535522,0.3122923076152801,0.2164885252714157,walking
1783085267257816000,2.961816162109375,0.9744441673368216,2.0038575038321316,0.8059960646450519,-0.2060756087303161,0.3419111371040344,0.2913997769355774,walking
1783085267267860000,2.97185986328125,0.5774725922295824,1.6166452157929538,0.9545341827303172,-0.3161142468452453,0.3434539139270782,0.3125966787338257,walking
1783085267277904100,2.981904052734375,0.1902468784532509,1.1437190031763165,0.8839502419412135,-0.4400709569454193,0.3456566631793976,0.2917863726615906,walking
1783085267287948000,2.991947998046875,-0.0814773647199384,0.7476425868105143,0.6711743372231721,-0.543164849281311,0.3240352571010589,0.2435551881790161,walking
1783085267297992000,3.001991943359375,-0.1638765204599127,0.5206463604949414,0.5268330863058567,-0.598010778427124,0.2699221670627594,0.1790519058704376,walking
1783085267308036000,3.0120361328125,-0.05839450396467,0.421906657866761,0.3911433438777923,-0.5987234711647034,0.205363929271698,0.1250874698162078,walking
1783085267318080000,3.022080078125,0.0606025536692701,0.5408368425432593,0.1058475618720054,-0.5484004020690918,0.1297958046197891,0.086826168000698,walking
1783085267328124200,3.032124267578125,0.1994402570005506,0.6924729266438633,-0.1399438927412033,-0.456366628408432,0.0676426887512207,0.047938160598278,walking
1783085267338167800,3.042167724609375,0.3583424231139943,0.7920765526250004,-0.3497533488690852,-0.339120864868164,0.0245066825300455,-0.0016911386046558,walking
1783085267348212000,3.0522119140625,0.4497222644986584,0.7577185751449317,-0.4518734146505594,-0.2216184735298156,0.0130902426317334,-0.0543394349515438,walking
1783085267358257200,3.062257080078125,0.4461032337512821,0.6364664503268898,-0.4831324762672185,-0.1302426159381866,0.0049396939575672,-0.1022553592920303,walking
1783085267368300800,3.07230078125,0.346763738599047,0.5244998941179365,-0.2429255437880754,-0.0760073363780975,-0.0385763570666313,-0.1370506286621093,walking
1783085267378345000,3.082344970703125,0.357348699368909,0.3187806299131363,0.1476911458671093,-0.0571157038211822,-0.091776393353939,-0.1649022400379181,walking
1783085267388389000,3.09238916015625,0.4915079442940652,0.1746856088418513,0.3599129238337278,-0.0642170161008834,-0.1391867846250534,-0.1861729025840759,walking
1783085267398433000,3.10243310546875,0.6024024142920971,0.1013644251085817,0.5074871653228998,-0.0916584730148315,-0.1868724226951599,-0.199015274643898,walking
1783085267408477200,3.112477294921875,0.6800189571317284,0.050996612265706,0.6455933212429285,-0.1244760751724243,-0.2327506989240646,-0.2080995887517929,walking
1783085267418520800,3.122520751953125,0.757900288387388,0.031171675594151,0.5608183580160141,-0.1553160399198532,-0.2489973157644271,-0.2153956890106201,walking
1783085267428565000,3.13256494140625,0.8477196024570613,0.0347805137410759,0.363010305327177,-0.1695461124181747,-0.2384730279445648,-0.2070999443531036,walking
1783085267438609200,3.142609130859375,0.8417534605942666,0.1023118620265275,0.3422252914518118,-0.1726024150848388,-0.2232811599969864,-0.1906522959470749,walking
1783085267448653800,3.15265380859375,0.7295615711968392,0.1513224881067872,0.401267263007164,-0.1828294843435287,-0.186618223786354,-0.1757401973009109,walking
1783085267458698000,3.162697998046875,0.5961300925569608,0.057277884492278,0.3139589819103479,-0.1997669488191604,-0.1554232984781265,-0.1783664524555206,walking
1783085267468742100,3.1727421875,0.4574691888310015,-0.1306254447758197,0.1658633468955755,-0.196230798959732,-0.1019954904913902,-0.1994320601224899,walking
1783085267478787000,3.182787109375,0.2829133438486605,-0.3365111515887081,-0.0522334605842828,-0.179175928235054,-0.0210203379392623,-0.2349797487258911,walking
1783085267488831000,3.1928310546875,0.0512019986446946,-0.4981223939977586,-0.0496522119194269,-0.1675656139850616,0.0258052237331867,-0.2792289555072784,walking
1783085267498875000,3.202875,-0.1117285462019965,-0.7538882762670517,0.159081139409542,-0.1745769381523132,0.0381875894963741,-0.3176947236061096,walking
1783085267508919000,3.2129189453125,-0.2254466587860137,-1.0111972963251172,0.2414291677504777,-0.2012386471033096,0.0323187820613384,-0.356631726026535,walking
1783085267518963200,3.222963134765625,-0.2456461278583854,-1.2383309583500026,0.2223562184900045,-0.2170667648315429,0.0038039232604205,-0.4034527540206909,walking
1783085267529006800,3.2330068359375,-0.1881962112674489,-1.3821551996558905,0.1495662920892238,-0.2107691764831543,0.0210494883358478,-0.4423950910568237,walking
1783085267539051000,3.243051025390625,-0.1925723439924418,-1.317429775636643,-0.0872124195069074,-0.1828729212284088,0.0505593083798885,-0.459626704454422,walking
1783085267549096000,3.253095947265625,-0.2428107583019882,-1.0896084236085417,-0.0420545963972806,-0.1466280966997146,0.0471054539084434,-0.4478802978992462,walking
1783085267559139800,3.263139892578125,-0.2471289137620478,-0.8781757501929998,0.1632289067387581,-0.1100629568099975,0.0356220379471778,-0.4024771451950073,walking
1783085267569184000,3.27318408203125,-0.2972157177064568,-0.7375897601559758,0.2177776585280895,-0.0881659090518951,0.0321543365716934,-0.3463555574417114,walking
1783085267579228000,3.283227783203125,-0.3801975869715213,-0.6904853330232202,0.234863817885518,-0.0705339536070823,0.0254076234996318,-0.3024439811706543,walking
1783085267589272000,3.29327197265625,-0.4294252898685634,-0.8186641152992844,0.3249672826588153,-0.0677275136113166,0.0231561847031116,-0.2843022644519806,walking
1783085267599316000,3.30331591796875,-0.4281915468225255,-1.0497907924830914,0.4004068467855453,-0.0869717225432396,0.0180220082402229,-0.2899079024791717,walking
1783085267609360000,3.31335986328125,-0.3791971046920865,-1.2201324538365006,0.4642851524561643,-0.1300270408391952,0.0049493503756821,-0.3071154057979584,walking
1783085267619404000,3.323404052734375,-0.2623777016244829,-1.3039054004140198,0.4574257880806923,-0.1676112115383148,-0.0183725599199533,-0.3164637982845306,walking
1783085267629448000,3.333447998046875,-0.0032766105178743,-1.3001328961379826,0.2635691033661365,-0.170434683561325,-0.0172377862036228,-0.3172289431095123,walking
1783085267639492000,3.3434921875,0.2580488786399364,-1.1567742265172305,-0.0783715259253978,-0.1276437491178512,0.0108644310384988,-0.300053983926773,walking
1783085267649537000,3.353537109375,0.4473181990316137,-0.9316877062804996,-0.2431424014091491,-0.0659534931182861,0.0364046767354011,-0.2730367481708526,walking
1783085267659581000,3.363580810546875,0.5689856266522779,-0.733102093347907,-0.2375128710895776,-0.0082901939749717,0.0576684214174747,-0.2305564135313034,walking
1783085267669625000,3.373625,0.5760093512766062,-0.5686604498185217,-0.173958390545845,0.0362964458763599,0.0255637466907501,-0.1671193838119506,walking
1783085267679669000,3.3836689453125,0.4185363411834463,-0.6228048585906625,0.1441319920808076,0.0746857598423957,-0.0131163448095321,-0.1092659533023834,walking
1783085267689713000,3.393712890625,0.1428956917515024,-0.8622894681446254,0.2387947275936603,0.105138212442398,-0.0209215357899665,-0.0846865698695182,walking
1783085267699757000,3.403757080078125,-0.122446120375581,-1.050102927172184,0.1825648908495903,0.1106745079159736,-0.0349551886320114,-0.0832471400499343,walking
1783085267709801000,3.413801025390625,-0.210704322608374,-1.1370401829995214,0.1834481034249067,0.0930033698678016,-0.0677877068519592,-0.0916291773319244,walking
1783085267719845000,3.42384521484375,-0.1214593012953177,-1.0507837490431964,0.122055184829235,0.0503840669989585,-0.1060105189681053,-0.0777803510427475,walking
1783085267729889000,3.433888916015625,0.0127122916547581,-0.7907321522787213,0.0675929422795772,0.0054504168219864,-0.1540731191635131,-0.0394369587302207,walking
1783085267739933000,3.443932861328125,0.1562719637403264,-0.5087349734269082,0.014175824868679,-0.0218514911830425,-0.1966603398323059,0.0134549550712108,walking
1783085267749978000,3.45397802734375,0.3347282136946916,-0.3478979302607476,-0.0201847098946571,-0.0234810803085565,-0.2766382694244385,0.0641026869416236,walking
1783085267760022000,3.46402197265625,0.4940064831115305,-0.3385783132515848,0.0450502710819244,0.011830904521048,-0.358066201210022,0.0999954789876937,walking
1783085267770066000,3.47406591796875,0.5606420516010373,-0.4588311248339712,-0.0965793827891349,0.0694760903716087,-0.4112865328788757,0.1057431176304817,walking
1783085267780109800,3.48410986328125,0.4838429260915145,-0.6096430330701172,-0.3161433402121066,0.1240054443478584,-0.4390535354614258,0.0865642204880714,walking
1783085267790154000,3.494154052734375,0.3394749698303639,-0.7490120485328138,-0.470136216571927,0.1630178242921829,-0.4675261676311493,0.0448729693889617,walking
1783085267800198100,3.5041982421875,0.2245215798303484,-0.8363055704519152,-0.5881716443657875,0.1748475730419159,-0.4696930646896362,-0.0157245062291622,walking
1783085267810242000,3.514241943359375,0.1539408539116382,-0.8549608788222074,-0.7287251934379338,0.164579764008522,-0.4671398997306824,-0.0960702076554298,walking
1783085267820286000,3.524285888671875,0.0931214243549853,-0.8772457758665084,-0.7792500965386628,0.1185063943266868,-0.4694708287715912,-0.1780465841293335,walking
1783085267830329900,3.534329833984375,0.102250706423819,-0.9195977477751672,-0.8962912525981664,0.0620745420455932,-0.463204950094223,-0.258299320936203,walking
1783085267840375000,3.544375,0.1393202809501439,-1.013034010232985,-1.0379401956915857,0.0143357859924435,-0.3960581421852112,-0.3499344289302826,walking
1783085267850419000,3.5544189453125,0.1616124114528298,-1.0311166332818569,-1.3222440440505745,-0.0187864825129508,-0.2754110693931579,-0.4433030188083648,walking
1783085267860462800,3.564462890625,0.1137772588927298,-0.934230961022526,-1.4643693724840878,-0.018145577982068,-0.1565654575824737,-0.5308517217636108,walking
1783085267870507000,3.574507080078125,0.0903772402133792,-0.7445416251204907,-1.2317781757056712,0.0224362015724182,-0.0599954947829246,-0.6078228950500488,walking
1783085267880551200,3.58455126953125,0.0976969886422157,-0.6297539470762014,-0.8293915532797574,0.0732599943876266,0.0134839070960879,-0.6855859160423279,walking
1783085267890595000,3.594594970703125,0.0456294592093676,-0.6273587225027382,-0.3967635218471288,0.1108470484614372,0.0356113128364086,-0.7627275586128235,walking
1783085267900639000,3.604638916015625,-0.0438208754174411,-0.7254679452076553,-0.1111591122835874,0.1339768171310424,0.0127590047195553,-0.831602931022644,walking
1783085267910683000,3.614682861328125,-0.0603862988363951,-0.8995379794344306,-0.1267868895262479,0.1563963741064071,-0.0142206810414791,-0.8894992470741272,walking
1783085267920727000,3.62472705078125,-0.0713202922396361,-0.9744977972202002,-0.2678933963060378,0.1867575943470001,-0.0379033759236335,-0.9293733835220336,walking
1783085267930771000,3.63477099609375,0.0014426000237464,-0.8197137704826891,-0.3937298532396555,0.2227851003408432,-0.0527925752103328,-0.9500203132629396,walking
1783085267940816000,3.64481591796875,0.2263715916112065,-0.4924667063236236,-0.6512649371385574,0.243899717926979,-0.039631962776184,-0.9417324662208556,walking
1783085267950860000,3.654860107421875,0.4426896259155124,-0.0409635132249444,-1.051790441867709,0.247787669301033,-0.0297588258981704,-0.9007027745246887,walking
1783085267960904000,3.664904052734375,0.5792721524648368,0.4471389334745705,-1.2385042690902948,0.2497320622205734,-0.0235671140253543,-0.8214319348335266,walking
1783085267970948000,3.674947998046875,0.615087927537784,0.9086767599839716,-1.2555524345248936,0.2605516612529754,-0.008156731724739,-0.7174378633499146,walking
1783085267980992000,3.684991943359375,0.5843816774982958,1.3257485450401902,-1.1411048020899297,0.2839478850364685,-0.0203653275966644,-0.5936658978462219,walking
1783085267991036000,3.695035888671875,0.5834042107682674,1.6986701496593652,-0.8684346929013729,0.3284202516078949,-0.0764190107583999,-0.4530759751796722,walking
1783085268001080000,3.705080078125,0.6440570515863597,1.980830702379346,-0.2982160538554191,0.3778856992721557,-0.191162571310997,-0.3150198459625244,walking
1783085268011124000,3.7151240234375,0.6702143330845981,2.0371955636799335,0.5277689058512449,0.4169119298458099,-0.3875818848609924,-0.1941301673650741,walking
1783085268021167900,3.72516796875,0.6640019613757729,1.9685627569586035,1.366327515926957,0.4398507177829742,-0.6244106292724609,-0.0953462943434715,walking
1783085268031212000,3.7352119140625,0.6371202380605041,1.8825168970130384,1.9524702848136424,0.4420560896396637,-0.859163224697113,-0.0172714684158563,walking
1783085268041257000,3.745257080078125,0.5786496366523206,1.8494097233116624,2.235003031846881,0.4212240278720855,-1.058896541595459,0.0355835743248462,walking
1783085268051301000,3.755301025390625,0.3955816185861825,1.822677053078264,2.222580188125372,0.3853190243244171,-1.1707594394683838,0.0805593058466911,walking
1783085268061345000,3.765344970703125,0.0193676944233477,1.7446268680617212,1.72664083725512,0.3224774897098541,-1.1188791990280151,0.1317644268274307,walking
1783085268071389000,3.775388916015625,-0.4803180033683776,1.573582026875019,0.5702525413155556,0.2284517884254455,-0.879962146282196,0.1603383719921112,walking
1783085268081433000,3.78543310546875,-1.1254092203080654,1.386926651841402,-0.6969885774374007,0.0940416157245636,-0.5362328290939331,0.1340180784463882,walking
1783085268091477000,3.79547705078125,-1.6893654379583891,1.051481960440427,-1.479430748015642,-0.0623120330274105,-0.1591947227716446,0.0378305576741695,walking
1783085268101521000,3.80552099609375,-2.0213586737312377,0.6040902943138032,-1.840863428762555,-0.2299384623765945,0.2158406674861908,-0.0790275409817695,walking
1783085268111564800,3.815564697265625,-2.2340428085125983,0.3713203069023787,-1.978722916445136,-0.3891283869743347,0.5322471261024475,-0.1751689910888672,walking
1783085268121609000,3.82560888671875,-2.2856042150542137,-0.016610139343515,-1.775633123961091,-0.4734578430652618,0.7151843905448914,-0.3101764619350433,walking
1783085268131653000,3.835653076171875,-2.2223617230691013,-0.6927288011010736,-1.2117407653272152,-0.4751116931438446,0.7465649247169495,-0.4628669321537018,walking
1783085268141697800,3.84569775390625,-1.9454731194026769,-1.0304135995790362,-0.7628934204995632,-0.4014390707015991,0.6789255142211914,-0.6295293569564819,walking
1783085268151742000,3.855741943359375,-1.2410101144313812,-1.1506899381674824,-0.6093395200788975,-0.2839134931564331,0.5817172527313232,-0.7730779647827148,walking
1783085268161786000,3.8657861328125,-0.6401902931556105,-0.891612081805989,-0.4494909034281968,-0.1477357000112533,0.4698106944561004,-0.8446752429008484,walking
1783085268171830000,3.875830078125,-0.3360243909850716,-0.348236660695821,-0.0958271031171083,-0.0182384327054023,0.3399421870708465,-0.834316074848175,walking
1783085268181874000,3.8858740234375,-0.1043961940199136,0.1971082338564097,0.319516616037488,0.0971085801720619,0.2035373300313949,-0.7594995498657227,walking
1783085268191917800,3.895917724609375,0.1726265574201941,0.6015531039863824,0.6490618741363287,0.2102782726287841,0.0659288763999939,-0.6272144317626953,walking
1783085268201962000,3.9059619140625,0.3292641030699014,0.8462093440245837,0.9476596207857132,0.3315803706645965,-0.0318528749048709,-0.4680442810058594,walking
1783085268212006100,3.916006103515625,0.3601053776659071,0.8916086477398872,1.2052923198401928,0.4461961686611175,-0.0767724141478538,-0.3361027538776397,walking
1783085268222050000,3.926050048828125,0.4234090983189642,0.7386953102450817,1.4585188928902149,0.5286890268325806,-0.1079486384987831,-0.2444361597299575,walking
1783085268232095000,3.936094970703125,0.4770440962642431,0.5051091841451824,1.7957634733200072,0.5431185364723206,-0.1386708766222,-0.189428836107254,walking
1783085268242139100,3.94613916015625,0.5011905493967235,0.2904964924540371,2.025608586260676,0.4822185635566711,-0.1382088810205459,-0.1654734462499618,walking
1783085268252183000,3.95618310546875,0.4920565180875361,0.0926950521690771,1.955529672384262,0.3433472216129303,-0.0872098803520202,-0.152737945318222,walking
1783085268262227000,3.96622705078125,0.4089148551508784,-0.0584170811226591,1.7625637990295886,0.1618948429822921,-0.020400620996952,-0.1547597348690033,walking
1783085268272270800,3.976270751953125,0.224042125750333,-0.191284897997789,1.713369852271676,-0.0147020230069756,0.0306804068386554,-0.1683932542800903,walking
1783085268282315000,3.98631494140625,0.0478331797987222,-0.363506929737702,1.8023855218082665,-0.1465829163789749,0.0738014504313469,-0.1941953599452972,walking
1783085268292359000,3.99635888671875,-0.1120443706855177,-0.5799928679548204,1.705870436426997,-0.2272940129041671,0.1356789171695709,-0.2241916060447693,walking
1783085268302403000,4.006403076171875,-0.2377740062437951,-0.8003035520918667,1.4717536375164986,-0.259531706571579,0.1976578086614608,-0.2651360929012298,walking
1783085268312447000,4.016447021484375,-0.2302661148317158,-0.9363909155353904,1.3477946648925545,-0.2459139078855514,0.2413192689418792,-0.3105320930480957,walking
1783085268322491000,4.026490966796875,-0.1693842144981026,-0.855745380263403,1.3110223928123712,-0.1976932138204574,0.2584593892097473,-0.3353418111801147,walking
1783085268332536000,4.0365361328125,-0.1326563660815358,-0.7259807901006191,1.2829682647168636,-0.1326335221529007,0.2571118175983429,-0.3379895091056824,walking
1783085268342580000,4.046580078125,-0.0767068075835704,-0.6536334198355674,1.0690221471756696,-0.0717086419463157,0.245647445321083,-0.3200201094150543,walking
1783085268352623900,4.056623779296875,-0.0947520212315023,-0.6896414295449853,0.8032973270803689,-0.0162736140191555,0.2057793885469436,-0.3030962347984314,walking
1783085268362668000,4.06666796875,-0.0462951565764844,-0.8746708108119666,0.7732587471693754,0.045844379812479,0.1254814863204956,-0.2982094287872314,walking
1783085268372712000,4.0767119140625,0.1238921909980475,-1.1267580776337534,0.9292945275336504,0.1112116649746894,-0.0015419814735651,-0.3094090819358825,walking
1783085268382756000,4.086756103515625,0.2606443019606173,-1.3341419871151448,1.0826309858113528,0.1751333475112915,-0.1126357316970825,-0.3304663002490997,walking
1783085268392800000,4.096800048828125,0.2968183158867061,-1.4131022727139293,0.963784826156497,0.2163217961788177,-0.1815378367900848,-0.3559974730014801,walking
1783085268402844000,4.106843994140625,0.2740814372912049,-1.3357168352164328,0.7658587000459433,0.2315434515476226,-0.2041751742362976,-0.3825965523719787,walking
1783085268412888000,4.11688818359375,0.2732853184774518,-1.1572268656555562,0.5663485196143389,0.2206673622131347,-0.2077645808458328,-0.3931900560855865,walking
1783085268422932000,4.126931884765625,0.2456643211022019,-0.8312417111910879,0.4231237055063247,0.2046810388565063,-0.2187003195285797,-0.3705610930919647,walking
1783085268432977000,4.136976806640625,0.188868228777498,-0.4907065647833049,0.322491247934103,0.2099711447954177,-0.2634944021701813,-0.3138357698917389,walking
1783085268443021000,4.14702099609375,0.0830411251716315,-0.2979506078522652,0.0665361267030239,0.2511137723922729,-0.2905404269695282,-0.2432402819395065,walking
1783085268453065000,4.15706494140625,-0.1174320550732314,-0.3985719595085829,-0.4846387891769408,0.3092670738697052,-0.272955060005188,-0.205865740776062,walking
1783085268463109000,4.167109130859375,-0.2995585545055568,-0.9075513361506165,-1.007461470797658,0.3565411567687988,-0.2283700555562973,-0.2407898902893066,walking
1783085268473152500,4.177152587890625,-0.5338701453357935,-1.591966117088497,-1.303430622509122,0.368748277425766,-0.1651548743247985,-0.3566035628318786,walking
1783085268483196400,4.187196533203125,-0.7287338151358067,-2.1708692901104687,-1.4206120638221502,0.3484757840633392,-0.1110102161765098,-0.5316480994224548,walking
1783085268493240600,4.197240478515625,-0.8817902874283492,-2.543124101383984,-1.366874043893814,0.3214186131954193,-0.1132661774754524,-0.7358614206314087,walking
1783085268503284500,4.207284423828125,-1.0472634659625588,-2.71336902436465,-1.0562602807581425,0.304589033126831,-0.1638187021017074,-0.9552686810493468,walking
1783085268513328600,4.21732861328125,-1.3922703509569168,-2.786231431479752,-0.8103934228211641,0.2798027098178863,-0.1553599685430526,-1.1495158672332764,walking
1783085268523373300,4.227373291015625,-2.2041680408611892,-2.6793355295985934,-1.3379647602736948,0.1848795413970947,0.1494446843862533,-1.265422224998474,walking
1783085268533417500,4.23741748046875,-3.042859629666805,-1.8212813609361649,-3.1633091328650713,-0.0376720540225505,0.8031183481216431,-1.2531964778900146,walking
1783085268543461600,4.247461669921875,-3.229942290201783,-0.194051915025711,-5.19462089920342,-0.333334743976593,1.4579405784606934,-1.1364392042160034,walking
1783085268553505500,4.257505615234375,-2.330543865368515,1.3236382748879492,-5.497462859293818,-0.5815557241439819,1.8453922271728516,-0.9932758808135986,walking
1783085268563549400,4.267549560546875,-0.922543226642534,2.1985328114531932,-4.401949011033773,-0.664832592010498,1.8209398984909055,-0.8383336663246155,walking
1783085268573593300,4.27759326171875,0.3689320235263556,2.497416243176162,-2.2803490710049865,-0.5371513366699219,1.4186164140701294,-0.6483426690101624,walking
1783085268583637500,4.287637451171875,1.1921633006107062,2.638040227136016,-0.0594552285313606,-0.2361132502555847,0.808437168598175,-0.4689379036426544,walking
1783085268593681700,4.297681640625,1.5054222444929182,2.689517900916934,1.6706594223141669,0.156018853187561,0.1450863480567932,-0.369812399148941,walking
1783085268603725300,4.307725341796875,1.2729030900374054,2.3089031114466487,2.8571529336601493,0.58199542760849,-0.3869113028049469,-0.4283123016357422,walking
1783085268613769500,4.31776953125,0.3212859637975692,1.2777541833303867,3.059564680752158,0.94475257396698,-0.6290531158447266,-0.6478787660598755,walking
1783085268623814700,4.327814697265625,-1.2201275584656746,0.0656332732788985,2.2559604796797035,1.1310142278671265,-0.663762629032135,-0.937861144542694,walking
1783085268633858600,4.337858642578125,-3.126685913866758,-0.9617624534834176,1.1224907025128603,1.0414183139801023,-0.4841604232788086,-1.2556452751159668,walking
1783085268643902500,4.34790234375,-4.8030996619239446,-1.754942802631855,-0.5726122561842203,0.6606196165084839,-0.1750989854335785,-1.6256756782531738,walking
1783085268653946400,4.3579462890625,-5.404937720331549,-2.151669061208516,-1.7394097179353236,0.1433700770139694,0.1490945369005203,-2.044799566268921,walking
1783085268663990500,4.367990478515625,-4.709963697586954,-1.9829984018072484,-1.8627724782317876,-0.301274299621582,0.4455606937408447,-2.4307801723480225,walking
1783085268674034700,4.37803466796875,-3.2541397428691385,-0.7790935908026992,-1.6847615974247454,-0.5826225876808167,0.7050281763076782,-2.643632173538208,walking
1783085268684078300,4.388078369140625,-1.6604494323365389,1.1714087549388408,-1.5407219598025084,-0.7108051180839539,0.8256877660751343,-2.602463483810425,walking
1783085268694122500,4.39812255859375,-0.172477139012143,3.148915573592484,-1.002750224366784,-0.6858838200569153,0.7947373390197754,-2.346240758895874,walking
1783085268704166400,4.40816650390625,1.134925601998344,4.560720061580836,-0.248577285939455,-0.5217797160148621,0.680869996547699,-1.957750916481018,walking
1783085268714210600,4.41821044921875,1.962588650985062,5.334731380683183,0.3943663975775242,-0.2780230045318603,0.5329883694648743,-1.4937571287155151,walking
1783085268724255500,4.42825537109375,2.2831541915535927,5.68873537273407,0.6720452748388052,-0.0107374880462884,0.3988173007965088,-1.044953465461731,walking
1783085268734299400,4.43829931640625,2.493471889464557,5.2557010985881085,0.7453571792870759,0.2460863143205642,0.2787814438343048,-0.7279582023620605,walking
1783085268744343600,4.448343505859375,2.691367620436847,4.212176673023403,1.016532666003704,0.4655010998249054,0.1793728768825531,-0.5751010775566101,walking
1783085268754387500,4.458387451171875,2.7341724506795404,3.185239809644222,1.5202771376669406,0.6130775213241577,0.0269343368709087,-0.5363507270812988,walking
1783085268764431400,4.468431396484375,2.4272343073166907,2.5392934371799227,2.511959440052509,0.6764834523200989,-0.2255004346370697,-0.5315443873405457,walking
1783085268774475500,4.4784755859375,1.8335792631037533,2.304301901261508,3.6124990075200794,0.6270703673362732,-0.4109962582588196,-0.5038283467292786,walking
1783085268784519400,4.48851953125,0.9435033778890968,2.4452619853079316,3.771913908928632,0.4267314374446869,-0.421888142824173,-0.4359084069728851,walking
1783085268794563600,4.4985634765625,-0.0080921941060572,2.673254748380184,3.139042122092843,0.0640992000699043,-0.2655192911624908,-0.3371016681194305,walking
1783085268804607500,4.508607421875,-0.8092436682641506,2.583594351199269,2.0851152527183294,-0.3819745481014251,-0.0627840980887413,-0.2508654594421386,walking
1783085268814652400,4.51865234375,-1.1713937765654177,2.042598445636779,1.1061971548378466,-0.7790585160255432,0.0868157818913459,-0.2291282266378402,walking
1783085268824696600,4.528696533203125,-1.2406819053903222,1.4293356146343053,0.3414309262037277,-1.0301088094711304,0.1486446559429168,-0.2654134631156921,walking
1783085268834740500,4.538740478515625,-1.103198703674227,1.005534229062125,-0.2125976255416869,-1.1012085676193235,0.1771809458732605,-0.3603168129920959,walking
1783085268844784400,4.548784423828125,-0.6049189636902883,0.6997006859403103,-0.7046434761047363,-1.0185716152191162,0.1999591737985611,-0.4875783026218414,walking
1783085268854828500,4.55882861328125,0.1617658484488725,0.5030149518122896,-1.1993325346529482,-0.8286599516868591,0.2460774034261703,-0.6266307234764099,walking
1783085268864872400,4.56887255859375,0.7875142862107605,0.4171237344391644,-1.6235165628671646,-0.5850827097892761,0.3061037063598633,-0.7820914387702942,walking
1783085268874916600,4.57891650390625,1.180975478576869,0.3268159062001854,-1.8193354875653984,-0.3330805599689483,0.4101907014846802,-0.959181785583496,walking
1783085268884960500,4.58896044921875,1.2479638790920375,0.2684029715296812,-1.8253402809381485,-0.1370745152235031,0.4572536945343017,-1.121038556098938,walking
1783085268895004400,4.59900439453125,0.9895219094812868,0.3044975087450817,-1.1788655006855726,-0.020809156820178,0.3909510970115661,-1.229530930519104,walking
1783085268905048300,4.60904833984375,0.8184620168559252,0.327482589947991,-0.4069184206366539,0.0184432938694953,0.24980229139328,-1.2833774089813232,walking
1783085268915093500,4.619093505859375,0.7548059756338595,0.3224522310979664,0.2994663461774587,-0.0057440679520368,0.0600784420967102,-1.3016417026519775,walking
1783085268925137400,4.629137451171875,0.6751988434989005,0.4134085863735526,0.7141150688052177,-0.0649486482143402,-0.1020622551441192,-1.3044732809066772,walking
1783085268935181300,4.639181396484375,0.6369385978832841,0.5306400773733854,0.7120622279286384,-0.1310499161481857,-0.1961951553821563,-1.3120709657669067,walking
1783085268945225500,4.6492255859375,0.6579330167256295,0.6933066740542649,0.6247492706567048,-0.1972075402736663,-0.235282227396965,-1.3141531944274902,walking
1783085268955269600,4.65926953125,0.6702020581249147,0.9171637986265122,0.4931763158977031,-0.2594740986824035,-0.2236194461584091,-1.2992171049118042,walking
1783085268965313500,4.6693134765625,0.6686660076640546,1.1780325569927692,0.2553559862941503,-0.3162276446819305,-0.1935451626777649,-1.2605520486831665,walking
1783085268975357400,4.679357421875,0.6627073915205896,1.382015060532838,0.1509603767961263,-0.3476753234863281,-0.1359865367412567,-1.2161297798156738,walking
1783085268985401300,4.6894013671875,0.662150269094482,1.4445998192615803,-0.0086298811793327,-0.3358303308486938,-0.0524817109107971,-1.1818596124649048,walking
1783085268995445500,4.699445556640625,0.6562815962567925,1.3096272851921618,-0.1752653814911842,-0.2958179712295532,0.0562612786889076,-1.1852247714996338,walking
1783085269005489700,4.70948974609375,0.6619476591944694,0.9942212462786584,-0.0711456663250923,-0.2690470218658447,0.1429311782121658,-1.227966547012329,walking
1783085269015534300,4.719534423828125,0.7211835458867252,0.594158500223048,0.2724731253117323,-0.2871440052986145,0.1853859573602676,-1.303867220878601,walking
1783085269025578500,4.72957861328125,0.8495607733443379,0.2538014868611469,0.5075000248044729,-0.3519584536552429,0.2089321762323379,-1.392664909362793,walking
1783085269035622700,4.73962255859375,0.8617082341905683,0.053822885200195,0.5244043978542089,-0.4377990365028381,0.2028617709875106,-1.4723762273788452,walking
1783085269045666600,4.74966650390625,0.8307362458869815,0.0051116439253091,0.4943108728855848,-0.5062050819396973,0.1763358265161514,-1.5241920948028564,walking
1783085269055710500,4.75971044921875,0.7190330898545682,0.0027054230337962,0.337674204018712,-0.5398179292678833,0.1660224646329879,-1.568542242050171,walking
1783085269065754400,4.76975439453125,0.5353401813557371,0.0408102954246103,0.0943517698675394,-0.5241788029670715,0.1604424566030502,-1.6138631105422974,walking
1783085269075798500,4.779798583984375,0.4277801530100405,0.0553031868858262,-0.18594108928442,-0.456597089767456,0.1607836037874221,-1.6585464477539062,walking
1783085269085842400,4.789842529296875,0.4130789525603875,-0.0097136578280478,-0.3702835112005472,-0.3465918302536011,0.1424512267112732,-1.7011531591415403,walking
1783085269095886600,4.799886474609375,0.3893170782987028,-0.0465223894611001,-0.2961246345341205,-0.2264153361320495,0.0987838953733444,-1.732788324356079,walking
1783085269105931500,4.809931640625,0.3267401375502348,-0.0882193315271288,-0.1904483375757932,-0.1240682303905487,0.0526469536125659,-1.7656437158584597,walking
1783085269115975400,4.819975341796875,0.374281494795531,-0.1347623984500765,-0.0811392370730638,-0.0568029023706913,-0.0183803495019674,-1.8104870319366455,walking
1783085269126019600,4.83001953125,0.5770175054058432,-0.1287535134240985,0.1640840622633695,-0.0280861500650644,-0.085317425429821,-1.860525608062744,walking
1783085269136063500,4.8400634765625,0.887312484915927,-0.0184011144135147,0.2599661104381084,-0.0301413107663393,-0.1260126531124115,-1.8986672163009644,walking
1783085269146107400,4.850107421875,1.221549481027573,0.1301076314467936,0.2879202852904796,-0.0577495694160461,-0.1640964746475219,-1.9253219366073608,walking
1783085269156151600,4.860151611328125,1.600377533211559,0.2412088760633021,0.2914467058509588,-0.0942647010087966,-0.2235251814126968,-1.9289765357971191,walking
1783085269166195500,4.870195556640625,1.9320212248943744,0.2936268994342536,0.1718254701703786,-0.113901101052761,-0.2906287908554077,-1.9290152788162231,walking
1783085269176239600,4.880239501953125,2.209306572793424,0.2802961470875889,-0.0542898085922002,-0.070341907441616,-0.3494159281253814,-1.9377925395965576,walking
1783085269186283500,4.890283447265625,2.3721578783914445,0.3881987417932599,-0.3046048781096935,0.0647887960076332,-0.3744930624961853,-1.938056468963623,walking
1783085269196327400,4.900327392578125,2.1656799047738313,0.7902218646690249,-0.2303589076817035,0.2431638687849044,-0.3907463252544403,-1.9388879537582395,walking
1783085269206372600,4.91037255859375,1.8924388638295233,1.1089163506686688,0.3544038050234318,0.380818098783493,-0.4674214422702789,-1.9675955772399905,walking
1783085269216416500,4.92041650390625,1.6151121610067785,1.1306570578336714,1.0614783076673746,0.4190845489501953,-0.5468992590904236,-2.032783269882202,walking
1783085269226460400,4.93046044921875,1.2894868528306485,0.9008577567961068,1.3191396482944489,0.3448549509048462,-0.577533483505249,-2.1417765617370605,walking
1783085269236504600,4.940504638671875,0.8408633798867463,0.5650494562471285,1.228165830427408,0.1824942827224731,-0.5640968084335327,-2.2914249897003174,walking
1783085269246548500,4.950548583984375,0.2989065203376114,0.3093559450943022,0.9691735334575176,-0.0055773220956325,-0.5127272605895996,-2.461473226547241,walking
1783085269256592600,4.960592529296875,-0.1539508638489991,0.2390519172251224,0.5613169551879167,-0.167211502790451,-0.4120621979236603,-2.6155478954315186,walking
1783085269266636300,4.97063623046875,-0.5349870936017483,0.3677682039113715,0.0287011938273906,-0.2895691692829132,-0.2912786304950714,-2.7322821617126465,walking
1783085269276680400,4.980680419921875,-0.6635453036494553,0.726830904123932,-0.3518541205406189,-0.3698885142803192,-0.2090655416250229,-2.808605432510376,walking
1783085269286724600,4.990724609375,-0.2916732811484486,1.1556067171078177,-0.4616887062221765,-0.4013997912406921,-0.1779541075229644,-2.8869922161102295,walking
1783085269296768500,5.0007685546875,0.4000179935984313,1.2128844554696232,-0.4725111290097236,-0.3994564712047577,-0.1966468244791031,-2.940007448196411,walking
1783085269306813400,5.0108134765625,0.8670950417954474,1.2549781417682766,-0.4391682468563318,-0.3943407833576202,-0.2360765933990478,-2.937190532684326,walking
1783085269316857600,5.020857666015625,1.0593054936729371,1.3925436149403452,-0.4954688107490539,-0.3925887048244476,-0.2806831896305084,-2.870981454849243,walking
1783085269326901500,5.030901611328125,1.1332407907165587,1.5243191065341233,-0.5663298149138689,-0.4000754058361053,-0.2906482219696045,-2.73834228515625,walking
1783085269336945400,5.0409453125,0.9871630713954568,1.576697674677521,-0.7832061406880617,-0.4065785706043243,-0.2272141277790069,-2.563267469406128,walking
1783085269346989300,5.0509892578125,0.6239218799218536,1.4633514276131987,-1.2511147443383932,-0.4056613743305206,-0.085794411599636,-2.400631904602051,walking
1783085269357033500,5.061033447265625,0.1664876162737608,1.14503921892941,-1.6140578296482562,-0.3798370361328125,0.0886740013957023,-2.305208206176758,walking
1783085269367077600,5.07107763671875,-0.2123462811291217,0.5391379662035033,-1.4166384840160609,-0.3375056982040405,0.2393219023942947,-2.288888692855835,walking
1783085269377121500,5.08112158203125,-0.3302214037947356,0.1285686949091032,-0.6437450630277395,-0.3160187900066376,0.3126728236675262,-2.3080053329467773,walking
1783085269387165400,5.09116552734375,-0.3060201517350971,0.1050598090277984,0.2524082424044609,-0.3460066020488739,0.3384939730167389,-2.3225417137145996,walking
1783085269397209300,5.101209228515625,-0.2195487598538398,0.3181697314731777,0.7208019992232322,-0.4188560545444488,0.3262413144111633,-2.3006672859191895,walking
1783085269407254500,5.111254638671875,-0.1439069511532783,0.6355826532296835,0.77228025752604,-0.4926100671291351,0.3123295307159424,-2.2320022583007812,walking
1783085269417298400,5.12129833984375,-0.2582281807295978,0.9138980748288332,0.7035925057470798,-0.5406473278999329,0.2969534993171692,-2.1398191452026367,walking
1783085269427342300,5.13134228515625,-0.4486472922109067,0.9448338958404958,0.7147650571465491,-0.5634056329727173,0.2630868256092071,-2.0578644275665283,walking
1783085269437386500,5.141386474609375,-0.7174400485094636,0.6715420745570212,0.7156570375502109,-0.5739312767982483,0.2075940072536468,-2.0067710876464844,walking
1783085269447430400,5.151430419921875,-0.9987111781090496,0.2013347289776429,0.5858563531607389,-0.5761473774909973,0.1755474656820297,-1.980799913406372,walking
1783085269457474600,5.161474609375,-1.3415262521475553,-0.1635000883629545,0.2566255678385496,-0.5462068319320679,0.184114322066307,-1.977758288383484,walking
1783085269467518500,5.1715185546875,-1.6016953378118577,-0.362881381717883,0.0787841983795166,-0.4736463725566864,0.2165311723947525,-1.9917590618133545,walking
1783085269477561900,5.181561767578125,-1.7054197700500486,-0.4912636872094124,0.2864420294314623,-0.3848837614059448,0.2198020666837692,-2.02389144897461,walking
1783085269487606000,5.19160595703125,-1.55335435462147,-0.5790097752016037,0.7231628831356763,-0.3363010585308075,0.2064619064331054,-2.0526132583618164,walking
1783085269497650000,5.20164990234375,-1.2575525223009287,-0.6229121183574199,1.0019693031221628,-0.3657953143119812,0.2093216031789779,-2.0534634590148926,walking
1783085269507694800,5.21169482421875,-1.1288767502881585,-0.6054531070996075,1.0027163220971822,-0.4578992128372192,0.2014144659042358,-2.019432306289673,walking
1783085269517739000,5.221739013671875,-0.9918222953781484,-0.5866048334404825,0.950765185585618,-0.5598369836807251,0.186624601483345,-1.9750406742095947,walking
1783085269527783000,5.231782958984375,-0.6362780881479382,-0.6326495223872364,0.8236889577239751,-0.6330974698066711,0.186172604560852,-1.9289511442184448,walking
1783085269537827000,5.2418271484375,-0.1317312871258705,-0.6966875486642122,0.4749953470408916,-0.6684805154800415,0.2190354764461517,-1.8893725872039795,walking
1783085269547871200,5.251871337890625,0.3176603206463158,-0.6497730911456048,0.0204559280514717,-0.6546920537948608,0.2401641309261322,-1.8223506212234497,walking
1783085269557915000,5.261914794921875,0.5551994952209294,-0.4362591544765978,-0.1312093821436166,-0.5940864682197571,0.2483046203851699,-1.722211241722107,walking
1783085269567959000,5.271958984375,0.7804732816580683,-0.1933997347272932,-0.1856412295550107,-0.5091018676757812,0.243545264005661,-1.6115927696228027,walking
1783085269578003000,5.2820029296875,0.9231762638490648,-0.0382453403074294,-0.3126379624396562,-0.4041613340377807,0.2116491198539734,-1.4972177743911743,walking
1783085269588047000,5.292047119140625,0.9112577163878828,0.0744859166637063,-0.4919640174984931,-0.2755119800567627,0.1957412660121917,-1.3883568048477173,walking
1783085269598091000,5.302091064453125,0.71030844306387,0.1994551623087376,-0.6407008730262518,-0.1554872989654541,0.1961551308631897,-1.2762190103530884,walking
1783085269608136000,5.312135986328125,0.4826506840996444,0.3075293141890317,-0.3295680544525384,-0.0867374837398529,0.1787758618593216,-1.1793137788772583,walking
1783085269618180000,5.32218017578125,0.3770977943252772,0.2991055500410497,0.0425847577512264,-0.0864986032247543,0.1590881794691085,-1.1040860414505005,walking
1783085269628224300,5.332224365234375,0.227769475710392,0.0831049111228436,0.3881365632772445,-0.1613609194755554,0.1714397966861724,-1.0676876306533811,walking
1783085269638268000,5.342267822265625,0.0501286703247576,-0.2015445358034223,0.5556938546091318,-0.2773386538028717,0.208817258477211,-1.0801341533660889,walking
1783085269648312000,5.35231201171875,-0.0856640940863639,-0.5019432674601674,0.6105044722050428,-0.38946533203125,0.2585623264312744,-1.1368868350982666,walking
1783085269658356000,5.36235595703125,-0.1311237496867776,-0.7349837423760444,0.6687059012830256,-0.4676142036914825,0.288368672132492,-1.219989776611328,walking
1783085269668400000,5.372400146484375,-0.2042396201062947,-0.9379876832075416,0.7761556376546621,-0.5135706663131714,0.3067923486232757,-1.312928557395935,walking
1783085269678444000,5.382444091796875,-0.2635137929823249,-1.1955450520034878,0.6895324162125587,-0.5326641798019409,0.3454411923885345,-1.412165641784668,walking
1783085269688488000,5.392488037109375,-0.4596175990365445,-1.5154479639448224,0.3431692943036556,-0.5384239554405212,0.4244184494018554,-1.5193772315979004,walking
1783085269698533000,5.402533203125,-0.7564581998202949,-1.908550479066372,-0.1708499031364917,-0.5367504358291626,0.5491777062416077,-1.6333309412002563,walking
1783085269708577000,5.412576904296875,-1.0275610596921294,-2.203233098098635,-0.5474497578769922,-0.5296640396118164,0.69123375415802,-1.7463797330856323,walking
1783085269718621000,5.422620849609375,-1.246912908734381,-2.3677318786427377,-0.732055799165368,-0.5153788328170776,0.8320918083190918,-1.8445440530776975,walking
1783085269728665000,5.4326650390625,-1.3106506368905304,-2.4397926139861346,-0.8328934239208697,-0.4752196371555328,0.9377176761627196,-1.92928147315979,walking
1783085269738709000,5.442708984375,-1.189164703316614,-2.3441825146205724,-0.8391279343962669,-0.3987437784671783,0.9966757893562316,-1.9842246770858765,walking
1783085269748753200,5.452753173828125,-1.0171761515390128,-2.086457753368467,-0.7524941915601492,-0.3058289885520935,1.0053168535232544,-2.0024240016937256,walking
1783085269758797000,5.462797119140625,-0.7684998622044921,-1.8092836107589303,-0.663802347150445,-0.231238916516304,0.9719183444976808,-1.9828516244888303,walking
1783085269768841000,5.472841064453125,-0.4826367651721462,-1.4953639379456638,-0.566540242794156,-0.1875302940607071,0.8798028826713562,-1.925209403038025,walking
1783085269778885000,5.482885009765625,-0.2219265218358486,-1.170222029372305,-0.3613116847157478,-0.1542929708957672,0.741957426071167,-1.8262755870819092,walking
1783085269788929000,5.492928955078125,0.0505714821888133,-0.9315653950750828,-0.1667944902658462,-0.1079974323511123,0.586098313331604,-1.6972084045410156,walking
1783085269798974000,5.502973876953125,0.2288582207951694,-0.7410930921018123,-0.0298632233440876,-0.0431081838905811,0.4459947049617767,-1.555733561515808,walking
1783085269809018000,5.51301806640625,0.2376777427950873,-0.5960929388843477,0.0172071553885936,0.0568676739931106,0.3492659032344818,-1.4157369136810305,walking
1783085269819062000,5.52306201171875,0.1482685804288834,-0.446324694482237,0.1410030464053153,0.1608079224824905,0.273375928401947,-1.3024239540100098,walking
1783085269829106200,5.533106201171875,0.1479758445600047,-0.413088487573713,0.4919803841114044,0.2201574444770813,0.1891006678342819,-1.2095712423324585,walking
1783085269839149800,5.54314990234375,0.1713049899602308,-0.4234900546006858,0.9713935475945472,0.2107450366020202,0.0606175288558006,-1.1265770196914673,walking
1783085269849194000,5.553194091796875,0.2093330707877874,-0.5252811806887387,1.452556185093522,0.1417390406131744,-0.0910609588027,-1.0519144535064695,walking
1783085269859238000,5.56323779296875,0.2321392152272164,-0.6752800920415669,1.6712848607361317,0.0462615154683589,-0.2141914069652557,-0.9839435815811156,walking
1783085269869282000,5.573281982421875,0.0756614997817203,-0.8783668157856911,1.5306822118252514,-0.0279338229447603,-0.2855952680110931,-0.9322559237480164,walking
1783085269879326200,5.583326171875,-0.1420706025715917,-1.0567724680639805,1.2346832494974136,-0.0446382313966751,-0.2796324491500854,-0.8974817395210266,walking
1783085269889369900,5.593369873046875,-0.4164299800213426,-1.1063842749077826,0.9047586366921664,-0.0055121947079896,-0.2411565631628036,-0.8784939646720886,walking
1783085269899415000,5.6034150390625,-0.6846730665478855,-1.0877690062869338,0.904087605562806,0.042919784784317,-0.2216196060180664,-0.8641238212585449,walking
1783085269909459200,5.613459228515625,-0.8233509579412639,-1.1261739210702475,1.101183126068115,0.0468628630042076,-0.1883537918329239,-0.8578539490699768,walking
1783085269919502800,5.6235029296875,-0.9256719531223178,-1.244892362692207,1.0563298388630151,-0.0060352394357323,-0.1445858180522918,-0.8639459013938904,walking
1783085269929547000,5.633547119140625,-1.0755331365048886,-1.449282131858915,0.9740092830508946,-0.0691675394773483,-0.0948987528681755,-0.8971729874610901,walking
1783085269939591000,5.6435908203125,-1.240463586464524,-1.6462272841081025,0.7611041989952325,-0.1137222275137901,-0.0100903874263167,-0.9486276507377625,walking
1783085269949635000,5.653635009765625,-1.3624553506687282,-1.7911422432601452,0.4296539840579033,-0.1381286233663559,0.0592166408896446,-1.0178626775741575,walking
1783085269959679200,5.66367919921875,-1.1938942891217768,-1.9253060912951825,0.2396124737173318,-0.1484734117984771,0.1078483611345291,-1.0915701389312744,walking
1783085269969723000,5.673722900390625,-0.90747008760795,-1.9214979311838745,-0.0969248352259397,-0.1448299586772918,0.1623773276805877,-1.154790997505188,walking
1783085269979767000,5.68376708984375,-0.6961028075788169,-1.71624365414232,-0.3474427338391542,-0.1247971281409263,0.1978679448366165,-1.2016900777816772,walking
1783085269989811000,5.69381103515625,-0.5412795448094606,-1.4179966206267476,-0.2775117040008306,-0.0996211171150207,0.1857764571905136,-1.194843292236328,walking
1783085269999855900,5.70385595703125,-0.6125162504188716,-1.168934692975506,-0.1325882692813873,-0.0709439292550087,0.1118766665458679,-1.16154944896698,walking
1783085270009900000,5.713900146484375,-0.9315541430287062,-1.1713036871291695,-0.1709609622955322,-0.0326350443065166,0.0744535103440284,-1.13876211643219,walking
1783085270019944000,5.72394384765625,-1.360561938137561,-1.4074223273813724,-0.6257873815327882,-0.0105007141828536,0.1206580251455307,-1.1559325456619265,walking
1783085270029988000,5.733988037109375,-1.7037895384997128,-1.640153224891424,-1.3353525319486856,-0.0398725941777229,0.2473985999822616,-1.2131270170211792,walking
1783085270040032000,5.744031982421875,-1.873532649438083,-1.7424254124946892,-2.262336444452405,-0.1058332324028015,0.4571853876113891,-1.277228832244873,walking
1783085270050076000,5.754075927734375,-1.8948454865798352,-1.5809449568584562,-3.139900200226903,-0.147659957408905,0.7006123661994934,-1.309883713722229,walking
1783085270060120000,5.7641201171875,-1.831672698830068,-1.184588846768439,-3.4210242495059964,-0.1067271754145622,0.8122148513793945,-1.3031208515167236,walking
1783085270070164000,5.7741640625,-1.5538105739563703,-0.7396783299330622,-2.7221786460250614,0.0206908266991376,0.7016915678977966,-1.2358640432357788,walking
1783085270080208100,5.7842080078125,-1.1653142374560237,-0.4539584772963076,-1.4737749142110348,0.1794746071100235,0.4549425542354584,-1.145929932594299,walking
1783085270090252000,5.794251953125,-0.9740865860708058,-0.444478482093662,-0.5132826998591423,0.301650196313858,0.2005879580974578,-1.0855709314346311,walking
1783085270100297000,5.804296875,-1.1108446153175084,-0.657009910531342,-0.0113818102359771,0.3464949131011963,-0.0022269445471465,-1.072404861450195,walking
1783085270110341000,5.814341064453125,-1.4871011365130542,-1.026061614914611,0.1495551861733198,0.324524313211441,-0.1188110187649726,-1.1115802526474,walking
1783085270120385000,5.824385009765625,-1.8697088533662256,-1.317343412527442,0.0329477453559637,0.2685121595859527,-0.1292689889669418,-1.190605878829956,walking
1783085270130429000,5.834428955078125,-2.1295333633765576,-1.5257817264325917,-0.1780786853462457,0.2009371668100357,-0.1077327951788902,-1.317397117614746,walking
1783085270140473000,5.84447314453125,-2.112471461677551,-1.69339279377833,-0.2236883438766002,0.1267231255769729,-0.070318579673767,-1.4737156629562378,walking
1783085270150517000,5.85451708984375,-1.8081199738070368,-1.6587695164255798,-0.3958002297729253,0.0582426041364669,-0.0027220975607633,-1.6016428470611572,walking
1783085270160561200,5.86456103515625,-1.497610840089619,-1.1472897743351758,-0.4918944593936205,0.0235354918986558,0.0771615505218505,-1.642809271812439,walking
1783085270170605000,5.87460498046875,-1.1514764123700558,-0.3549127774588763,-0.4044844714879989,0.0315789505839347,0.1085453107953071,-1.6154953241348269,walking
1783085270180649000,5.88464892578125,-0.6536775512382388,0.3067453242044896,-0.0413970092713832,0.0889176130294799,0.0842828527092933,-1.5406402349472046,walking
1783085270190693000,5.894693115234375,-0.1664856435123831,0.6733252316467464,0.4907324298769235,0.1364471018314361,0.0114045850932598,-1.419376015663147,walking
1783085270200738000,5.904738037109375,0.1170529195625335,0.8746068056650459,0.8208984502226114,0.1321386396884918,-0.0683903768658638,-1.268579602241516,walking
1783085270210782000,5.914781982421875,0.1920163540774956,0.9209696937154978,0.7115460951000452,0.0669277310371398,-0.0766776576638221,-1.1367805004119873,walking
1783085270220825900,5.924825927734375,0.2720337475137785,0.6940075888652354,0.1411374864399433,-0.0296680424362421,-0.0223355926573276,-1.0666216611862185,walking
1783085270230870000,5.9348701171875,0.4228166123185306,0.3154245244182646,-0.3802957866489887,-0.1062058806419372,0.0496919080615043,-1.05232834815979,walking
1783085270240914200,5.9449140625,0.5180123587295413,0.0454847900416702,-0.5661901141822338,-0.1327474862337112,0.094019167125225,-1.0454243421554563,walking
1783085270250958000,5.9549580078125,0.4701042870637029,0.0690852997291833,-0.3780354405015707,-0.104971207678318,0.0792132914066314,-1.0285794734954834,walking
1783085270261002000,5.965001953125,0.3598202771142125,0.2577745186779648,0.128832716140151,-0.0536861829459667,0.0153008876368403,-1.0124764442443848,walking
1783085270271046000,5.9750458984375,0.3094235304377973,0.3704064069278538,0.6316840383559466,-0.0130757261067628,-0.09114770591259,-1.0130198001861572,walking
1783085270281090000,5.985090087890625,0.4842629416018724,0.4603035354740917,1.0733177985429765,0.0205842331051826,-0.2195794433355331,-1.022453784942627,walking
1783085270291134200,5.99513427734375,0.7702594192229211,0.5823926956381649,1.3083207326382398,0.0656525641679763,-0.299094408750534,-1.0194272994995115,walking
1783085270301179000,6.005178955078125,0.9989217521198094,0.7533271352529526,1.3559475762099027,0.0910886824131012,-0.3374380767345428,-0.9911109805107116,walking
1783085270311223000,6.01522314453125,1.1994397944197055,0.9211164817750452,1.421300630608201,0.0605379119515419,-0.3620922565460205,-0.9638049602508544,walking
1783085270321267200,6.02526708984375,1.4737050638452172,0.8614865542639046,1.3804969110548495,-0.0361092686653137,-0.3563675284385681,-0.9625937342643738,walking
1783085270331311000,6.03531103515625,1.742118246241659,0.5930637272562831,0.9887000717043876,-0.1777575612068176,-0.2795206010341644,-0.9803457856178284,walking
1783085270341355000,6.04535498046875,1.8437788778178392,0.4162396450810134,0.4180845422953367,-0.3195232152938843,-0.1570255756378173,-0.9877248406410216,walking
1783085270351399000,6.05539892578125,1.763186753233522,0.4692362720575183,0.1934656395703554,-0.4120201468467712,-0.0198155120015144,-0.9916791915893556,walking
1783085270361443000,6.065443115234375,1.619918976766616,0.5945759584501386,0.1398252347975969,-0.4590781927108764,0.120032399892807,-0.9719851016998292,walking
1783085270371487200,6.0754873046875,1.366607209651172,0.668327204163745,0.0409025037527084,-0.4742558896541595,0.2471957504749298,-0.9413931369781494,walking
1783085270381531000,6.08553076171875,1.0967898595452308,0.58427149512209,-0.0074409636557102,-0.4908322095870971,0.3267739415168762,-0.935945689678192,walking
1783085270391575000,6.095574951171875,0.9893608737006784,0.2454036243394017,0.0526133998125791,-0.5260095000267029,0.3456827402114868,-0.965842604637146,walking
1783085270401619000,6.105618896484375,0.9722556443165988,-0.1591905911333858,0.0775742380678653,-0.5844477415084839,0.3644375205039978,-1.0019795894622805,walking
1783085270411664100,6.1156640625,0.8361298485588282,-0.2613601220797747,-0.0015980828464031,-0.6464365720748901,0.3780582845211029,-0.9977896809577942,walking
1783085270421708000,6.1257080078125,0.5444778293941169,-0.0927441154751926,0.1431733761817216,-0.694490373134613,0.3585064113140106,-0.9428577423095704,walking
1783085270431752000,6.135751953125,0.2812611927274614,-0.0052454994380474,0.2946200751900673,-0.7024174332618713,0.3191634118556976,-0.8677275776863098,walking
1783085270441796000,6.145796142578125,0.1685292051039636,-0.1206666530802845,0.265481658989191,-0.6546229720115662,0.2721256017684936,-0.8032553791999817,walking
1783085270451840000,6.155840087890625,0.1377338885415345,-0.3256127409555018,0.2352384964168071,-0.5687174797058105,0.2058657109737396,-0.7503136396408081,walking
1783085270461884000,6.1658837890625,0.1441843067899346,-0.558684122466296,0.2275321598231792,-0.4815138876438141,0.1388629674911499,-0.7061136960983276,walking
1783085270471928000,6.175927978515625,0.1748606000825762,-0.8434099956296384,0.1356020641446113,-0.4149875044822693,0.0921140164136886,-0.6828945279121399,walking
1783085270481972500,6.185972412109375,0.3459489150848239,-1.071053214611858,0.0446101260989904,-0.3765423595905304,0.0644770711660385,-0.6632792949676514,walking
1783085270492016400,6.196016357421875,0.5242986724574119,-1.1084591084204614,0.0370908365100622,-0.3426161706447601,0.0590272322297096,-0.6388623714447021,walking
1783085270502060300,6.206060302734375,0.6280354527205229,-1.0254923636592923,0.0590560000807046,-0.3130073845386505,0.0810379907488823,-0.5968145132064819,walking
1783085270512105500,6.21610546875,0.6449375607479363,-0.8982884177647531,0.1391027657419443,-0.3032369315624237,0.1137047335505485,-0.5232411026954651,walking
1783085270522149400,6.2261494140625,0.5440032706849277,-0.7416919347777963,0.2189934640586376,-0.3353472054004669,0.1493218392133712,-0.4270325601100921,walking
1783085270532193500,6.236193603515625,0.4324178958132862,-0.6579369622483849,0.1632230615198612,-0.3925622999668121,0.19975546002388,-0.3212222456932068,walking
1783085270542237200,6.2462373046875,0.3694369043085724,-0.6509462265782058,-0.0238332955300807,-0.457241415977478,0.2552498579025268,-0.226219817996025,walking
1783085270552281300,6.25628125,0.3240283943735063,-0.6852214211456478,-0.1132622220426797,-0.4881027042865753,0.2638410031795501,-0.1505260020494461,walking
1783085270562325200,6.2663251953125,0.3010499621070921,-0.8658391234502196,-0.0736100106120109,-0.4544075727462768,0.2465445548295974,-0.1145216599106788,walking
1783085270572369400,6.276369384765625,0.1557221113052219,-1.0448363849461078,-0.1762660829663276,-0.3540337979793548,0.2856437563896179,-0.1203712299466133,walking
1783085270582413300,6.286413330078125,-0.1688136115359142,-1.174053862620145,-0.2201040556490421,-0.2382718026638031,0.3233767449855804,-0.1574064791202545,walking
1783085270592457200,6.296457275390625,-0.502317069208622,-1.3102125377342104,0.1128209080159664,-0.1635746955871582,0.3318019807338714,-0.2119117379188537,walking
1783085270602501400,6.30650146484375,-0.6941637292750179,-1.50133892070204,0.4296002080440521,-0.163066029548645,0.3346270620822906,-0.2880366146564483,walking
1783085270612546600,6.316546630859375,-0.6981238650776446,-1.7223364180594682,0.5585585963904858,-0.2094892114400863,0.3103334605693817,-0.3706890046596527,walking
1783085270622590200,6.326590087890625,-0.7018900857433676,-1.9036096616633236,0.7281079383224248,-0.2612967491149902,0.2562851309776306,-0.4433802664279938,walking
1783085270632634400,6.33663427734375,-0.6321893575295806,-2.0578619196116925,0.7860311349809169,-0.2864447832107544,0.1778838485479354,-0.508642852306366,walking
1783085270642678300,6.34667822265625,-0.4716163355944678,-2.1591851359270513,0.5681997004389763,-0.2868783473968506,0.0978721007704734,-0.5628280639648438,walking
1783085270652722400,6.356722412109375,-0.2513780225738883,-2.159382558195293,0.2549614340186119,-0.2766411900520324,0.0042428523302078,-0.6081395149230957,walking
1783085270662766300,6.366766357421875,0.0477576303444802,-2.13214033100456,-0.0300263049513101,-0.2711159288883209,-0.0712942481040954,-0.6168616414070129,walking
1783085270672810200,6.376810302734375,0.3764277495766058,-2.0892693036578596,-0.3751595928043126,-0.2666701972484588,-0.1161108464002609,-0.5890371203422546,walking
1783085270682854400,6.3868544921875,0.6648895578652619,-2.032728793529421,-0.6469990963876247,-0.2641255557537079,-0.1257815957069397,-0.5278352499008179,walking
1783085270692898300,6.396898193359375,0.8689156082861125,-2.1033958825573325,-0.8679623992145061,-0.2246284931898117,-0.1138913482427597,-0.4438866972923279,walking
1783085270702942500,6.4069423828125,0.9647913728505372,-2.176338223040849,-1.0356798495441677,-0.1266420036554336,-0.0456110872328281,-0.3375440239906311,walking
1783085270712986400,6.416986328125,0.8952133942335844,-2.0728576825611293,-1.0937480076313018,-0.0076265893876552,0.0095879156142473,-0.2096629589796066,walking
1783085270723031300,6.42703125,0.726558809184283,-1.8247215645179151,-0.889861511811614,0.1018698066473007,0.0351087227463722,-0.0689630955457687,walking
1783085270733075500,6.437075439453125,0.5930327110635116,-1.707248008390516,-0.6315571971058845,0.1692932844161987,0.0507037006318569,0.062520682811737,walking
1783085270743119400,6.447119384765625,0.4794789587283506,-1.723662698227167,-0.2983008095294236,0.1632343232631683,0.0185476299375295,0.1673536300659179,walking
1783085270753163300,6.457163330078125,0.4490262450585141,-1.806309124992788,0.0115279407083988,0.1017699241638183,-0.0550805293023586,0.2407938092947006,walking
1783085270763207400,6.46720751953125,0.4335854417553171,-1.8146097742177545,0.006700958943367,0.0491551756858825,-0.1050933599472045,0.2960850298404693,walking
1783085270773251300,6.477251220703125,0.2943186445580795,-1.5951082145065067,-0.2215326271474361,0.0473599433898925,-0.1600722074508667,0.3311395049095154,walking
1783085270783295500,6.48729541015625,0.1462126708123833,-1.2837551773108542,-0.374856810465455,0.0975184515118599,-0.2279878854751587,0.3373902142047882,walking
1783085270793339100,6.497339111328125,0.021509967149049,-1.0211397214077411,-0.5735778863459825,0.1763713657855987,-0.2670891284942627,0.3260892033576965,walking
1783085270803383300,6.50738330078125,-0.1177388560000807,-0.7511066827245056,-0.7502250775843858,0.243257462978363,-0.2829248011112213,0.3206552863121032,walking
1783085270813427500,6.517427490234375,-0.305958411610499,-0.4458469939678907,-0.8006886058866978,0.2589788734912872,-0.2517474293708801,0.3350982666015625,walking
1783085270823472400,6.527472412109375,-0.670725789738074,-0.117184802313894,-1.108544594746828,0.2077614963054657,-0.1588680893182754,0.3369179964065552,walking
1783085270833516300,6.537516357421875,-0.98865586723648,-0.0398135394722223,-1.7366332389593124,0.1096938848495483,-0.07013750821352,0.2877117991447449,walking
1783085270843560400,6.547560546875,-0.9964541929624974,-0.3545033198751509,-2.19498140258193,0.0266368128359317,-0.0393636226654052,0.1644929200410843,walking
1783085270853604400,6.557604248046875,-0.861081188333407,-0.7424848387211561,-2.4280951619297264,0.0074660340324044,-0.0247886590659618,0.0051508713513612,walking
1783085270863648500,6.5676484375,-0.7838684039890765,-0.7104450019903481,-2.581132929521799,0.0568857789039611,-0.0400821268558502,-0.1185292601585388,walking
1783085270873692200,6.577692138671875,-0.5777642321199178,-0.4663642968177795,-2.371888706061244,0.1486406475305557,-0.0756709277629852,-0.2131608426570892,walking
1783085270883736300,6.587736328125,-0.0409873324919492,-0.3655388008914887,-2.0377268940776587,0.2388456463813781,-0.1245556399226188,-0.2859634160995483,walking
1783085270893780500,6.597780517578125,0.6943222077723592,-0.2545430624760687,-1.5965198348701,0.2985032796859741,-0.1877782195806503,-0.3311012089252472,walking
1783085270903824400,6.607824462890625,1.3482766031906008,0.1174380464226007,-1.0638485439300536,0.3365545272827148,-0.2717607319355011,-0.3309589922428131,walking
1783085270913868500,6.61786865234375,1.718367806689441,0.6454474830314517,-0.4383446555137634,0.3856067955493927,-0.4025150239467621,-0.2836422920227051,walking
1783085270923912200,6.627912109375,1.8661665045842528,1.089877595938742,0.5003986683666706,0.4772059619426727,-0.6261678338050842,-0.2007540613412857,walking
1783085270933957400,6.637957275390625,1.7498323277503252,1.3654504408314825,1.6369208188414572,0.6098453998565674,-0.9140045642852784,-0.0950644686818122,walking
1783085270944001500,6.64800146484375,1.4514362411528825,1.5034250793263315,2.506896311444044,0.7397107481956482,-1.2081754207611084,0.0103013664484024,walking
1783085270954045200,6.658045166015625,1.0992715202931314,1.5880124110266565,3.0311060635089873,0.8389057517051697,-1.4595155715942385,0.1135669648647308,walking
1783085270964089300,6.66808935546875,0.7644307130694389,1.5565610417082905,3.123209762188792,0.8823546767234802,-1.607498049736023,0.2221512347459793,walking
1783085270974133200,6.67813330078125,0.3378933997273445,1.4700101548500355,2.800159126806259,0.8337334394454956,-1.6538193225860596,0.3247787356376648,walking
1783085270984177400,6.688177490234375,-0.178105134961754,1.2256728445678948,2.2348212455391883,0.6837868094444275,-1.563009262084961,0.3810350894927978,walking
1783085270994221600,6.6982216796875,-0.5937406766697764,0.7839483373574913,1.3822551528990268,0.4770658910274505,-1.342102289199829,0.3732134699821472,walking
1783085271004265200,6.70826513671875,-0.9169595082260668,0.3140788088977336,0.609922288402915,0.2575908005237579,-1.0215414762496948,0.2905401587486267,walking
1783085271014309400,6.718309326171875,-0.9443918511614204,-0.0879747821815311,-0.214574478572607,0.0352059230208396,-0.6337165832519531,0.164482906460762,walking
1783085271024353300,6.728353271484375,-1.05391035663113,-0.3435087553910911,-1.1732581821978092,-0.1694265753030777,-0.1973315477371215,0.0335965305566787,walking
1783085271034398200,6.738398193359375,-1.2877088833726942,-0.5375872661627829,-2.208808852404356,-0.3202695846557617,0.2648341655731201,-0.0911435931921005,walking
1783085271044442400,6.7484423828125,-1.583890070399642,-0.5578234139837325,-3.0402368799477815,-0.3843143284320831,0.6766287088394165,-0.1961808055639267,walking
1783085271054486300,6.758486328125,-1.596759927236289,-0.3292930369034409,-3.1862089469373225,-0.3543626070022583,0.9446143507957458,-0.2871564030647278,walking
1783085271064530400,6.768530517578125,-1.257905719652772,0.0182233466938138,-2.7510265548467636,-0.2430336773395538,1.092241287231445,-0.3337422609329223,walking
1783085271074574600,6.77857470703125,-1.0168053454652428,0.2111339827299118,-2.1530220832526683,-0.0913001596927642,1.1538110971450806,-0.3401033878326416,walking
1783085271084618200,6.7886181640625,-0.7959824740223586,0.3119875357069075,-1.4283271682441234,0.0563492216169834,1.10004985332489,-0.3153610229492187,walking
1783085271094662400,6.798662353515625,-0.612825170237571,0.3541447156958281,-0.6724626234680414,0.1898055970668792,0.9462591409683228,-0.2680090069770813,walking
1783085271104706300,6.808706298828125,-0.5213530474595726,0.3362374492138624,-0.0283779532223939,0.2893729507923126,0.7634294033050537,-0.2078495174646377,walking
1783085271114750500,6.81875048828125,-0.4441710235796868,0.2777797072872519,0.3642722880870103,0.3374939560890198,0.5656139254570007,-0.1606474220752716,walking
1783085271124794400,6.82879443359375,-0.4161576658859848,0.1800588993780315,0.6953431483179331,0.344648003578186,0.3600549697875976,-0.1269512474536895,walking
1783085271134838300,6.83883837890625,-0.3940199222274124,0.1245259588569402,0.9932283627837896,0.3248637318611145,0.1824877709150314,-0.0882546976208686,walking
1783085271144883500,6.848883544921875,-0.3175850634530186,0.1739706655055284,1.134751633670926,0.3049904406070709,0.0229614973068237,-0.0461024530231952,walking
1783085271154927400,6.85892724609375,-0.1823657150156795,0.2357194118015468,1.2718944975167512,0.2874978184700012,-0.076015755534172,0.0075302389450371,walking
1783085271164971300,6.86897119140625,-0.239159907644242,0.3661969725392758,1.2166226921498775,0.2815120816230774,-0.1386511772871017,0.0730021893978118,walking
1783085271175015400,6.879015380859375,-0.2674307472303509,0.4511247151751071,1.3513824602514504,0.290132462978363,-0.2056826502084732,0.0949182584881782,walking
1783085271185059300,6.889059326171875,-0.0425591849185526,0.273242429183796,1.6148440115898846,0.2921047806739807,-0.2488964349031448,0.0866736471652984,walking
1783085271195103500,6.899103515625,-0.0048714054286479,0.0365486924573779,1.6733301028281449,0.2595644891262054,-0.2724492251873016,0.0849535912275314,walking
1783085271205147400,6.9091474609375,-0.1425757025495171,-0.153924487298727,1.6316162826925515,0.207029640674591,-0.282582551240921,0.0842598378658294,walking
1783085271215191300,6.91919140625,-0.2663667712606489,-0.406472065108642,1.56774265319705,0.1724630296230316,-0.2548440098762512,0.0609379112720489,walking
1783085271225235500,6.9292353515625,-0.2744866570912301,-0.7323731945514679,1.5523346561849116,0.1392118632793426,-0.2075926065444946,0.0116443987935781,walking
1783085271235279400,6.939279296875,-0.282356221422553,-0.9717533938828856,1.5479975037634373,0.0903052687644958,-0.1486025005578994,-0.0432613305747509,walking
1783085271245324300,6.94932421875,-0.3131207775205373,-1.1549527832437303,1.4975310528516768,0.0241843052208423,-0.0870238170027732,-0.0927689597010612,walking
1783085271255368400,6.959368408203125,-0.2806637382909655,-1.2623381491422652,1.4561580089777708,-0.0537201650440692,-0.0324022993445396,-0.1227323412895202,walking
1783085271265412400,6.969412353515625,-0.1508627616405487,-1.2465506512932478,1.3878110334604978,-0.1368225067853927,-0.0008182753808796,-0.135397270321846,walking
1783085271275456500,6.97945654296875,0.0690194679513573,-1.1779537926681338,1.290483462652564,-0.2078535705804824,0.0258610341697931,-0.1311382055282592,walking
1783085271285500400,6.98950048828125,0.2629987561322748,-1.078605456622317,1.029198086309433,-0.2546149492263794,0.0752376392483711,-0.1026384010910987,walking
1783085271295544300,6.99954443359375,0.283631940446794,-0.9316177097842095,0.6450467932760715,-0.2671392560005188,0.1332767158746719,-0.0533307865262031,walking
1783085271305588200,7.009588134765625,0.1892342856109142,-0.8271597025744617,0.4374976832956075,-0.2446248829364776,0.1596071124076843,0.0127539588138461,walking
1783085271315632400,7.01963232421875,0.1091547867238521,-0.8926933011714369,0.5014817874282598,-0.205448642373085,0.1315649896860122,0.0772492960095405,walking
1783085271325676500,7.029676513671875,-0.008001666278392,-1.0309827777691185,0.6336287426829338,-0.1768620014190673,0.0579895786941051,0.1361139416694641,walking
1783085271335720200,7.03972021484375,-0.015749942317605,-1.1688380276679993,0.6859960587799548,-0.1620906442403793,-0.0521040298044681,0.1698704063892364,walking
1783085271345764400,7.049764404296875,0.0845442232109606,-1.2879913535758851,0.6273907250761985,-0.1400897353887558,-0.2118819802999496,0.1884057372808456,walking
1783085271355809500,7.0598095703125,0.1665399309828877,-1.3210869829699396,0.4762146597027778,-0.0830891504883766,-0.3655236065387726,0.1988207995891571,walking
1783085271365853200,7.069853271484375,0.1356248604983091,-1.33475719640404,0.0079231942147016,0.0182734206318855,-0.4586080014705658,0.2071857899427414,walking
1783085271375897300,7.0798974609375,-0.0750388743713498,-1.1604011848427354,-0.4108785564392805,0.1389861702919006,-0.5602027177810669,0.2583371698856354,walking
1783085271385941200,7.089941162109375,-0.4348636815302074,-0.720518067715317,-0.2750496978014707,0.2382541596889495,-0.7162362337112427,0.3665549755096435,walking
1783085271395985400,7.0999853515625,-0.6665130674138665,-0.4672068120565265,-0.1995370684385299,0.2870812118053436,-0.8591863512992859,0.4680880308151245,walking
1783085271406029600,7.110029541015625,-0.6915643604315816,-0.6436874145563691,-0.6482961504608392,0.2976374328136444,-0.8536424040794373,0.5118091702461243,walking
1783085271416073200,7.1200732421875,-0.8931235823474823,-0.830308448928967,-1.4806886391222476,0.2937139272689819,-0.7076208591461182,0.5016225576400757,walking
1783085271426117400,7.130117431640625,-1.3466469561621546,-0.8040146815694869,-1.8424778782218696,0.2941488027572632,-0.5319427847862244,0.456792265176773,walking
1783085271436161300,7.140161376953125,-1.796988192809373,-0.8274966063786298,-1.5308090530753136,0.2756533026695251,-0.3680419027805328,0.3604936599731445,walking
1783085271446205400,7.150205322265625,-1.8660121908053755,-1.0262623981837182,-1.0687059208333491,0.235086441040039,-0.2778366506099701,0.2261465042829513,walking
1783085271456250400,7.16025048828125,-1.8353562096484004,-1.3083674943894148,-0.4513064284175634,0.1728959828615188,-0.2946169376373291,0.0762481465935707,walking
1783085271466294300,7.170294189453125,-2.14538691219911,-1.6475073870465158,-0.0049590837121009,0.1173086240887641,-0.3971070945262909,-0.1031554266810417,walking
1783085271476339000,7.1803388671875,-2.207480380279571,-1.9968182528451084,0.272673031798005,0.0751345828175544,-0.4933159351348877,-0.3145103454589844,walking
1783085271486382800,7.1903828125,-2.177300053810328,-2.1709964236214754,0.0850602099090814,0.0470763184130191,-0.5336913466453552,-0.4916129410266876,walking
1783085271496426800,7.2004267578125,-2.763409651079774,-2.077652369491756,-0.830345493003726,0.0306867063045501,-0.4143652319908142,-0.6479862332344055,walking
1783085271506470700,7.210470703125,-2.749664034321904,-1.914756640230119,-2.004323221647739,0.0246208235621452,-0.1394915729761123,-0.8565852642059326,walking
1783085271516514800,7.220514892578125,-1.4508400288254022,-1.5724961313344537,-2.8762136079609393,-0.0287200454622507,0.1674594581127166,-0.9876758456230164,walking
1783085271526559000,7.23055908203125,-0.5012338040165603,-0.5632699158865958,-3.275638457971811,-0.1019409969449043,0.4736625254154205,-0.9872255325317384,walking
1783085271536602600,7.2406025390625,0.1247780339218676,0.4982118989121168,-3.34442265586257,-0.13907390832901,0.7461733222007751,-0.8943178057670593,walking
1783085271546646800,7.250646728515625,0.5596363086245953,1.2758040721759198,-3.0203204656004905,-0.0863947123289108,0.8532467484474182,-0.7554829716682434,walking
1783085271556690700,7.260690673828125,0.7570335885554552,1.684999205572903,-1.9786942748725411,0.044752512127161,0.8255108594894409,-0.6087884902954102,walking
1783085271566736000,7.27073583984375,0.796841428939253,1.8223926831789312,-0.9621879123538732,0.1893307417631149,0.7504374384880066,-0.4721302390098572,walking
1783085271576779800,7.28077978515625,0.7229911798305809,1.955106478536129,-0.2574661103159189,0.2695367038249969,0.6575633883476257,-0.3583077192306518,walking
1783085271586823700,7.29082373046875,0.6068409812614322,1.8993729008764024,0.2632528770238161,0.2652295529842376,0.5425361394882202,-0.2530867457389831,walking
1783085271596867800,7.300867919921875,0.5470118048511445,1.9469836700960992,0.5904898581802844,0.212418258190155,0.4120023846626282,-0.1569992452859878,walking
1783085271606911700,7.310911865234375,0.5816169620253145,2.1176520791858433,0.9568068038374185,0.1689959466457367,0.2301617413759231,-0.0959622636437416,walking
1783085271616955600,7.32095556640625,0.9406707848116757,2.1129308958828448,1.484378725811839,0.1576309949159622,0.0186161007732152,-0.0569073110818862,walking
1783085271626999800,7.330999755859375,1.182699818151444,1.9505039531767367,1.7376473844379186,0.1502362042665481,-0.1307653933763504,-0.0268157217651605,walking
1783085271637043700,7.341043701171875,1.170292171999067,1.7763447793617844,1.5300632031440733,0.1221249997615814,-0.17789888381958,-0.0506733693182468,walking
1783085271647087900,7.351087890625,1.1463473789185286,1.609706502570957,1.2609364656507969,0.0448171570897102,-0.1628546863794326,-0.1010302901268005,walking
1783085271657131800,7.3611318359375,1.0712396770946682,1.6026668131925166,1.1187708052068948,-0.078240156173706,-0.1239889338612556,-0.1186380013823509,walking
1783085271667175700,7.37117578125,1.1605863321512937,1.6794681671917435,1.0977817931920288,-0.195456251502037,-0.0820856988430023,-0.1102586314082145,walking
1783085271677220900,7.381220947265625,1.3878065034158529,1.6438501797132192,1.0681535476475954,-0.2655649185180664,-0.0413572899997234,-0.070943683385849,walking
1783085271687264800,7.3912646484375,1.4622062031008305,1.6892669460199772,0.943249403128028,-0.25647634267807,0.0238078646361827,-0.0197159200906753,walking
1783085271697308700,7.40130859375,1.3257251641646026,1.6958520234987138,0.5318412698566913,-0.199979081749916,0.1637839674949646,0.0330053903162479,walking
1783085271707352800,7.411352783203125,1.184935468249023,1.7015771231472492,0.1240717853486537,-0.1508395075798034,0.3215989172458648,0.0967987477779388,walking
1783085271717396700,7.421396728515625,1.0381894942775367,1.739424330982566,0.1763712969064712,-0.1484670042991638,0.4221882224082947,0.1591632962226867,walking
1783085271727441000,7.43144091796875,0.8734582201518117,1.5593974341779946,0.5902595565557479,-0.1945250481367111,0.4694114029407501,0.1855810582637787,walking
1783085271737484800,7.44148486328125,0.71282868225649,1.0237865826547146,0.9739514153838156,-0.2874015569686889,0.4790031015872955,0.1651920080184936,walking
1783085271747528700,7.45152880859375,0.3751796126790344,0.3990971524264663,1.1615899562358856,-0.4143621623516083,0.4728077948093414,0.1097061112523078,walking
1783085271757572900,7.46157275390625,-0.1122270337760448,-0.0421741311237216,1.193449321833253,-0.5448088645935059,0.4485450685024261,0.0317565239965915,walking
1783085271767616800,7.47161669921875,-0.3740066233769059,-0.3866141760155558,1.0709504848897458,-0.6642508506774902,0.4014385342597961,-0.0609009750187397,walking
1783085271777661700,7.48166162109375,-0.3582658872790634,-0.6615233693677932,0.7287935824990273,-0.7441530823707581,0.337092787027359,-0.1488797664642334,walking
1783085271787705600,7.49170556640625,-0.243754395827651,-0.7041577384144068,0.2989122194260358,-0.7518700957298279,0.2506447434425354,-0.2077191025018692,walking
1783085271797749800,7.501749755859375,-0.0252377555005252,-0.4666057043582201,0.1373357560694217,-0.6749773025512695,0.1263609379529953,-0.2219442129135131,walking
1783085271807794000,7.5117939453125,0.1680466822840273,-0.0894489463873207,0.1439823544770479,-0.5250527858734131,-0.0191856063902378,-0.2044350057840347,walking
1783085271817837800,7.521837890625,0.3513429561480879,0.0595123655460774,0.215318574938178,-0.3474030196666717,-0.1583297848701477,-0.1810757666826248,walking
