time,seconds_elapsed,accel_x,accel_y,accel_z,gyro_x,gyro_y,gyro_z,label
1783090587434426600,0.055426513671875,0.8270660329416394,-1.0881593938440084,-0.7212398061186075,0.2453861236572265,0.0542325116693973,0.1090552732348442,walking
1783090587444471300,0.06547119140625,0.61941039384678,-0.8269190256863832,-0.5131050052046775,0.2915309965610504,0.0757521837949752,0.1835947483778,walking
1783090587454515500,0.075515380859375,0.4223505291767418,-0.6306283918231725,-0.2272819844543933,0.27932208776474,0.1205174475908279,0.265591025352478,walking
1783090587464560400,0.085560302734375,0.3225632902570068,-0.5183450978152454,-0.0215454768538475,0.2579206526279449,0.1715753078460693,0.341364324092865,walking
1783090587474604300,0.095604248046875,0.2793188264880329,-0.5208509431563317,0.0941851811289787,0.250709056854248,0.1933849602937698,0.40022012591362,walking
1783090587484649500,0.1056494140625,0.3175146285653114,-0.4939655665792524,0.1267851359605789,0.2739547491073608,0.2013416886329651,0.4422285556793213,walking
1783090587494693600,0.115693603515625,0.4914487614527344,-0.4480490340568125,0.0831985076904296,0.3169527053833008,0.1947585046291351,0.4801904857158661,walking
1783090587504738600,0.125738525390625,0.616705080410838,-0.4792332768715918,0.0427343953549861,0.3526411950588226,0.17495097219944,0.4944993853569031,walking
1783090587514783500,0.135783447265625,0.7359372437085956,-0.6196135152034461,0.0237257435023784,0.3476309180259704,0.1586674153804779,0.4581446647644043,walking
1783090587524827400,0.145827392578125,0.749328567136079,-0.6963729297570884,-0.0010813654959201,0.3115943372249603,0.136988490819931,0.3984839916229248,walking
1783090587534872600,0.15587255859375,0.7251574179537594,-0.6377496220052242,-0.0233978267222642,0.2852949202060699,0.1409230679273605,0.3470687568187713,walking
1783090587544916500,0.16591650390625,0.6200808404542505,-0.6460146153949201,-0.0454787256270647,0.266988068819046,0.1447042226791381,0.2875220775604248,walking
1783090587554961400,0.17596142578125,0.6421686074912548,-0.7881038496017455,0.0633043051749467,0.2485148757696151,0.1418158859014511,0.2206440865993499,walking
1783090587565005600,0.186005615234375,0.6945079396028071,-0.8088872560419141,0.191830731844902,0.2259967774152755,0.1237023919820785,0.1611211001873016,walking
1783090587575050200,0.19605029296875,0.6824822785053402,-0.6670340225480497,0.2402858429342508,0.2128068506717682,0.0826723799109458,0.1402371078729629,walking
1783090587585094400,0.206094482421875,0.6748735570672899,-0.4073446832247078,0.3999386447519064,0.2311286032199859,0.0104184243828058,0.1597506254911422,walking
1783090587595139600,0.2161396484375,0.5480404172465205,-0.1290130411431193,0.6284013634234666,0.2659813463687897,-0.0979698300361633,0.2185302078723907,walking
1783090587605183500,0.22618359375,0.218182293806225,0.134745593445748,0.9273281958967446,0.300767570734024,-0.2423600256443023,0.3206352591514587,walking
1783090587615228400,0.236228515625,-0.0151397014647722,0.4450368466287851,1.3508242418467995,0.3277819156646728,-0.4354225993156433,0.4575291574001312,walking
1783090587625272600,0.2462724609375,-0.1851440936878323,0.7308755033396184,1.8140338740259407,0.349249929189682,-0.6434959173202515,0.5961996912956238,walking
1783090587635317500,0.2563173828125,-0.3475686252411454,0.8060137464322149,2.1103180830359456,0.3888177871704101,-0.8394626379013062,0.6971363425254822,walking
1783090587645361400,0.266361328125,-0.5255123590961098,0.7043333872422576,2.128128465014696,0.4353701174259186,-0.968433141708374,0.7364062666893005,walking
1783090587655406600,0.276406494140625,-0.8968552431564778,0.3805075297035277,1.6085755988448858,0.4787800014019012,-0.9654212594032288,0.7118462324142456,walking
1783090587665450200,0.2864501953125,-1.5043907094880935,-0.1315786538474261,0.5129074368059635,0.5119965076446533,-0.7848498821258545,0.647331178188324,walking
1783090587675495400,0.296495361328125,-2.092147343312204,-0.5088799348555505,-0.923894129794836,0.520645260810852,-0.4720952808856964,0.576541543006897,walking
1783090587685539600,0.30653955078125,-2.407368892504275,-0.6075536595754325,-2.117335268321633,0.5079742074012756,-0.0659048929810524,0.5236983299255371,walking
1783090587695584500,0.31658447265625,-2.348955866502225,-0.5528082161702216,-3.0493320405513047,0.4668451845645904,0.3823765218257904,0.484739601612091,walking
1783090587705628400,0.32662841796875,-1.875641604416072,-0.4145160361588001,-3.6655057905644175,0.4091643095016479,0.7769858837127686,0.4377990067005157,walking
1783090587715673300,0.33667333984375,-1.3418508079268037,-0.2417946400620043,-3.831296072223782,0.3331555128097534,1.0414916276931765,0.3726063072681427,walking
1783090587725717500,0.346717529296875,-0.9317698316060006,-0.2289937568083405,-3.5351959876090286,0.2586455941200256,1.1554216146469116,0.2526295781135559,walking
1783090587735762400,0.356762451171875,-0.727626949872449,-0.7084517823465168,-2.698352364757657,0.2387468367815017,1.047600030899048,0.1668486446142196,walking
1783090587745806300,0.366806396484375,-1.038761448946595,-1.009264428566396,-1.4337123684138058,0.2731535732746124,0.819342315196991,0.0815606489777565,walking
1783090587755851500,0.3768515625,-1.15865602167584,-1.1812724156968295,-0.7097364153295755,0.3548494279384613,0.5733429789543152,0.0173314735293388,walking
1783090587765895400,0.3868955078125,-1.2892220644146204,-1.1361777209512889,-0.4380173232555389,0.4141617715358734,0.3829713761806488,-0.0050281602889299,walking
1783090587775941000,0.396941162109375,-1.41379083949998,-1.0601502739340067,-0.3296393661230802,0.4420929253101349,0.2145620584487915,-0.0170618668198585,walking
1783090587785985300,0.4069853515625,-1.3713470976546407,-1.143372600891441,-0.1341542034238576,0.4540838003158569,0.060621503740549,-0.025878794491291,walking
1783090587796030200,0.4170302734375,-1.2299997678562995,-1.1952500876449048,-0.0569756866753101,0.4456090629100799,-0.0723627209663391,-0.0237150527536869,walking
1783090587806074000,0.42707421875,-1.0293639443956315,-1.135076043319702,-0.1143517708450555,0.4229788482189178,-0.1716525554656982,-0.0034736956004053,walking
1783090587816119300,0.437119384765625,-0.7174148410029709,-1.0020355002261698,-0.2470873396426439,0.3879035413265228,-0.257455825805664,0.0389570370316505,walking
1783090587826164200,0.447164306640625,-0.2482766224924474,-0.7956007812283933,-0.1171487080872058,0.3507529497146606,-0.3563312888145447,0.0924857780337333,walking
1783090587836208000,0.4572080078125,0.2431052112039178,-0.6945484908089041,0.1976104842901229,0.3487125039100647,-0.457676351070404,0.1450584977865219,walking
1783090587846253000,0.467253173828125,0.3937760304689407,-0.7227471419416368,0.295444835576415,0.3838582336902618,-0.4970450401306152,0.1949296593666076,walking
1783090587856297200,0.477297119140625,0.3134011288318782,-0.7468151230104267,0.390763404649496,0.4207383096218109,-0.4893609881401062,0.2440963387489318,walking
1783090587866342400,0.48734228515625,0.1818942250464111,-0.8192270829442888,0.692299542838335,0.4272345602512359,-0.473278671503067,0.2890366613864898,walking
1783090587876386000,0.497385986328125,0.1596297862682491,-0.9013380145937204,1.1066448986053463,0.3910768628120422,-0.4737053215503692,0.3326331079006195,walking
1783090587886431200,0.50743115234375,0.2568955438863486,-0.8889696775384247,1.4015940596193075,0.3178492486476898,-0.478956013917923,0.3619563579559326,walking
1783090587896475400,0.517475341796875,0.4732081713631749,-0.8667432326830923,1.38346160607934,0.2433826476335525,-0.4526175558567047,0.3852388560771942,walking
1783090587906520000,0.52752001953125,0.6628056642632931,-0.7198294278640299,0.9838736744612456,0.1896400600671768,-0.4158901870250702,0.4248285889625549,walking
1783090587916564200,0.537564208984375,0.8290707238275558,-0.3760827720638364,0.6764847185909748,0.1902331411838531,-0.4075987040996551,0.4739657938480377,walking
1783090587926609200,0.547609130859375,0.9818662801615892,-0.2172347107578069,0.665350161114335,0.2575195133686065,-0.4216487407684326,0.5205567479133606,walking
1783090587936653000,0.557653076171875,0.8106326384045183,-0.3558874677099287,0.5099509250879287,0.3532304763793945,-0.401236355304718,0.5386133790016174,walking
1783090587946698200,0.5676982421875,0.4019663511872291,-0.5363788402210921,0.5634142197281122,0.4097779095172882,-0.3436167240142822,0.5354034900665283,walking
1783090587956742400,0.577742431640625,-0.0504322563812136,-0.7968094263657927,0.8904635693579912,0.3788856267929077,-0.2452785521745681,0.5273711085319519,walking
1783090587966787000,0.587787109375,-0.3087764647059142,-1.0113717761091887,1.174215044531226,0.2911139726638794,-0.170828565955162,0.5307855606079102,walking
1783090587976831200,0.597831298828125,-0.33890871424973,-1.040587130003795,1.5083400316357611,0.1930644959211349,-0.1577006727457046,0.5409657955169678,walking
1783090587986876200,0.607876220703125,-0.0787193895149976,-1.2186661076109857,1.5778911222457883,0.1301928460597992,-0.1823916286230087,0.5452342629432678,walking
1783090587996920000,0.617920166015625,0.336420989087224,-1.4533864984378215,1.2401648957788944,0.1309411972761154,-0.2185541689395904,0.536030650138855,walking
1783090588006965200,0.62796533203125,0.6036768912073225,-1.5628735858559608,0.8372410977363586,0.164067730307579,-0.2253779917955398,0.5066022276878357,walking
1783090588017009200,0.638009033203125,0.6983977135829628,-1.6483078897744416,0.6181167007744311,0.1699832677841186,-0.2163543403148651,0.4701673984527588,walking
1783090588027054300,0.648054443359375,0.7980226015478372,-1.6632862631976604,0.7030395480394362,0.123449869453907,-0.2133170068264007,0.4481191039085388,walking
1783090588037098200,0.65809814453125,0.7026463109381497,-1.6207544046774505,0.7825766106128692,0.055220041424036,-0.2165428400039672,0.4449255168437958,walking
1783090588047143200,0.66814306640625,0.4688517297193407,-1.5664020522430535,0.715347240948677,0.026355106383562,-0.2247967720031738,0.4426088333129883,walking
1783090588057187300,0.678187255859375,0.236363408793509,-1.5897241833806035,0.5344949992358684,0.0513096302747726,-0.214816004037857,0.4147966504096985,walking
1783090588067232300,0.688232177734375,-0.0593438771113753,-1.603071156209707,0.2730161461472511,0.1011134013533592,-0.177479013800621,0.382744699716568,walking
1783090588077276200,0.698276123046875,-0.3186898098245262,-1.5466365906737745,0.0463040705353021,0.1481291055679321,-0.1345841139554977,0.3663331568241119,walking
1783090588087321300,0.7083212890625,-0.3245290373720228,-1.4688698987737296,-0.0780611448019742,0.1831384897232055,-0.0889332741498947,0.3714251220226288,walking
1783090588097365200,0.718365234375,-0.2309112808674573,-1.3432678351178764,-0.0782955380797386,0.1974320262670517,-0.0386611893773078,0.3869336247444153,walking
1783090588107410200,0.72841015625,-0.1449674199916422,-1.322301911717653,0.0325292276829481,0.2111648917198181,-0.0066566495224833,0.4054735004901886,walking
1783090588117455400,0.738455322265625,0.0623813451111316,-1.3780382658563552,0.125212772077322,0.2566616833209991,-0.0087782759219408,0.4315018951892853,walking
1783090588127499000,0.7484990234375,0.3751343122325837,-1.4310900570861995,-0.037507016095519,0.3168424665927887,-0.0422129333019256,0.4488470554351806,walking
1783090588137544200,0.758544189453125,0.5247356756351887,-1.497976750792563,-0.2212199079364538,0.3590297996997833,-0.1365922540426254,0.4327626526355743,walking
1783090588147588400,0.76858837890625,0.4424702110111713,-1.7568179488539697,-0.3396674236625432,0.3793057799339294,-0.2514858245849609,0.3928202986717224,walking
1783090588157633300,0.77863330078125,-0.1794127104289829,-2.0045485548362136,-0.8262526707321405,0.4143096208572387,-0.2609136402606964,0.3655188083648681,walking
1783090588167677200,0.78867724609375,-1.389018217293173,-1.7601678438037631,-1.7577993611067533,0.4858399927616119,-0.0888561308383941,0.4430519342422485,walking
1783090588177722000,0.79872216796875,-1.7077729090474545,-0.6803553494792431,-2.705747151184082,0.525016188621521,0.2541046142578125,0.6364914774894714,walking
1783090588187766300,0.808766357421875,-1.0102262593358755,0.7400029587775468,-3.634484629356861,0.4495693743228912,0.6497030854225159,0.8194940686225891,walking
1783090588197811200,0.818811279296875,-0.1837543198298662,1.648321918299794,-4.2052819450736045,0.3519631028175354,0.9613634347915648,0.9112783074378968,walking
1783090588207855000,0.828855224609375,0.5383991670675575,1.978809279554337,-4.085264403551816,0.3122921288013458,1.0460835695266724,0.9307763576507568,walking
1783090588217900300,0.838900390625,0.7141451716825366,1.7443688016474246,-3.3391929385155437,0.3273170590400696,0.8651580214500427,0.8620456457138062,walking
1783090588227944200,0.848944091796875,-0.0127210229504853,0.7084162726417184,-1.6257786625802515,0.3404440581798553,0.497192770242691,0.7053351402282715,walking
1783090588237989000,0.858989013671875,-0.995048344752565,-0.5746522741118446,0.09414543364048,0.3140701949596405,0.0887015685439109,0.4776964485645294,walking
1783090588248033300,0.869033203125,-1.8051508948683737,-1.4868923160679637,1.0503326442748309,0.2721259593963623,-0.3408471345901489,0.1864427626132965,walking
1783090588258078200,0.879078125,-2.1784992004670203,-1.7578826554760336,1.7053379369854926,0.2470751106739044,-0.718510627746582,-0.0941901803016662,walking
1783090588268122000,0.8891220703125,-2.039050543896854,-1.467007465902716,1.9596867920637129,0.2154657989740371,-1.0107903480529783,-0.3406034409999847,walking
1783090588278167300,0.899167236328125,-1.644393200548738,-1.0393494049023837,1.829138504177332,0.164927452802658,-1.2227474451065063,-0.5607757568359375,walking
1783090588288211200,0.909211181640625,-1.3366760356374083,-0.5241713928159326,1.1921312249720095,0.1306973099708557,-1.270745873451233,-0.6837871670722961,walking
1783090588298256100,0.919256103515625,-0.9091820060923697,0.3365823171287775,-0.0547404749691486,0.1396602988243103,-1.1552727222442627,-0.6731063723564148,walking
1783090588308300300,0.92930029296875,-0.2349343989036977,1.3928352913632989,-1.274194591152668,0.1726635247468948,-0.886495053768158,-0.5515580773353577,walking
1783090588318345200,0.93934521484375,0.2887142121471464,2.1469044771552084,-2.143583808299899,0.1851922124624252,-0.5518017411231995,-0.3918983936309814,walking
1783090588328389000,0.94938916015625,0.9766022221535444,2.463558397237956,-2.1667875737547875,0.1417286247014999,-0.2497564256191253,-0.2265238165855407,walking
1783090588338434300,0.959434326171875,1.4418271396778524,2.595269591423869,-1.672300759780407,0.0443038716912269,-0.0114462953060865,-0.0746111720800399,walking
1783090588348478200,0.969478271484375,1.5181882025636733,2.6012518807038663,-1.030384081223607,-0.0866536125540733,0.1479324549436569,0.062878780066967,walking
1783090588358523100,0.979523193359375,1.46804382321313,2.500704178805649,-0.2832873647928238,-0.1971781253814697,0.2380540370941162,0.1992827653884887,walking
1783090588368567300,0.9895673828125,1.1558036279194055,2.1601083882518113,0.220609667083621,-0.2859109342098236,0.2872748374938965,0.2878576517105102,walking
1783090588378612200,0.9996123046875,0.6615807255782187,1.486531958322972,0.5271212555974721,-0.3539749383926391,0.292501300573349,0.3316788971424103,walking
1783090588388656000,1.00965625,0.0690374419994652,0.976528572395444,0.7203811434626579,-0.4091785252094269,0.241372600197792,0.3554481267929077,walking
1783090588398701300,1.019701416015625,-0.3840129074759781,0.8391877748247235,0.989642905512452,-0.4204274713993072,0.1075254157185554,0.3897023797035217,walking
1783090588408745200,1.0297451171875,-0.5620096136271954,1.0746085690058766,1.3876234019339084,-0.3601683676242828,-0.1008352488279342,0.4135504364967346,walking
1783090588418790100,1.0397900390625,-0.2930181929513812,1.368387517196685,1.7820342231750488,-0.260988712310791,-0.3528223931789398,0.4321298003196716,walking
1783090588428834300,1.049834228515625,0.1368776370383799,1.5442716151081024,1.9251912327438592,-0.1848002076148986,-0.5531155467033386,0.4443199038505554,walking
1783090588438879200,1.059879150390625,0.2073873435474932,1.583992653991282,1.6093150190353394,-0.1476790457963943,-0.6832061409950256,0.4440990686416626,walking
1783090588448923100,1.069923095703125,0.2509966220408678,1.4889882654339075,1.2453069348424672,-0.1451173573732376,-0.7385337948799133,0.4628200232982635,walking
1783090588458968000,1.079968017578125,0.5974922842882573,1.4136039386257528,0.8817220444977283,-0.1699201911687851,-0.7434412240982056,0.4689843952655792,walking
1783090588469012200,1.09001220703125,1.1134757675386964,1.1747818846337497,0.559809473234415,-0.2191037237644195,-0.692377507686615,0.4504482746124267,walking
1783090588479057400,1.100057373046875,1.3061257068119942,0.8712835795264691,0.2492898181229829,-0.2912637889385223,-0.5815619230270386,0.4177736341953277,walking
1783090588489101000,1.11010107421875,1.2669511958956718,0.5073474645912647,-0.0362134691536426,-0.3709407746791839,-0.4431984722614288,0.377513587474823,walking
1783090588499146200,1.120146240234375,1.077304968483001,0.1356727182280272,0.0176917240351438,-0.4369414448738098,-0.3136177062988281,0.3207942247390747,walking
1783090588509191200,1.130191162109375,0.8952902588620781,-0.2812973600193858,0.2025181300759315,-0.4750968217849731,-0.2241259217262268,0.233119249343872,walking
1783090588519235000,1.140235107421875,0.6908662951648235,-0.7331764006931334,0.3687625852435827,-0.4749231338500976,-0.1700017750263214,0.1239033341407775,walking
1783090588529280300,1.1502802734375,0.613299655881524,-0.957577422883734,0.5550526340961456,-0.4406642317771911,-0.1679199934005737,0.0311896447092294,walking
1783090588539324200,1.16032421875,0.7795926263660192,-1.0987561911821364,0.7861252430051565,-0.4023275971412658,-0.1771928966045379,-0.0260790362954139,walking
1783090588549369000,1.170369140625,0.7304233756579458,-1.0557734470892697,0.940608533230424,-0.3817378878593445,-0.2220250964164734,-0.0462391637265682,walking
1783090588559413200,1.180413330078125,0.6040476972810924,-0.9620265112470836,1.182231177726388,-0.3553411662578583,-0.3196607232093811,-0.0281711108982563,walking
1783090588569458200,1.190458251953125,0.6089622111991048,-0.949988867450878,1.3180436697512865,-0.3013918995857239,-0.4616431593894958,-0.00075573194772,walking
1783090588579502000,1.200502197265625,0.6179604872994124,-1.0304645260486751,1.2083072837471962,-0.2115969061851501,-0.5893586874008179,0.0266759153455495,walking
1783090588589547300,1.21054736328125,0.6316537893481552,-1.1051153509505092,0.8706769188702106,-0.1058989763259887,-0.6706002354621887,0.071035660803318,walking
1783090588599591200,1.220591064453125,0.6202500595413148,-0.9870225669462234,0.4759855271220207,-0.015309389680624,-0.6893126368522644,0.1399037986993789,walking
1783090588609636400,1.23063623046875,0.5913023436069488,-0.7351681590322404,0.0988800609469413,0.042698785662651,-0.6671910881996155,0.226687952876091,walking
1783090588619680300,1.24068017578125,0.7550381769545376,-0.6492837001934647,-0.2779816596001386,0.0736130252480506,-0.5763223767280579,0.3220073878765106,walking
1783090588629725200,1.25072509765625,0.8162041549265384,-0.6096949824530631,-0.7057528986513614,0.0886574909090995,-0.4182967841625213,0.4029909372329712,walking
1783090588639769300,1.260769287109375,0.7487573431193828,-0.5536415982544421,-1.0879869598865508,0.100257284939289,-0.2176157534122467,0.4747186005115509,walking
1783090588649814000,1.27081396484375,0.5806903486996888,-0.4875679014313965,-1.149929329058528,0.0922970995306968,-0.0075160516425967,0.5243013501167297,walking
1783090588659858200,1.280858154296875,0.4124667024135589,-0.3999615872360765,-0.8949205487668513,0.0460361763834953,0.1950725018978119,0.5543019771575928,walking
1783090588669903400,1.2909033203125,0.1736217059373855,-0.4259703271090984,-0.5971370411098003,-0.0345524102449417,0.3874834775924682,0.5657653212547302,walking
1783090588679947300,1.300947265625,-0.092969521728903,-0.4823360651925206,-0.4299292938679456,-0.1162479147315025,0.5394734144210815,0.5715152025222778,walking
1783090588689992200,1.3109921875,-0.2287612632267177,-0.5242945077389478,-0.2960381252944469,-0.163345918059349,0.638658881187439,0.5811492204666138,walking
1783090588700036400,1.321036376953125,-0.1118091006249189,-0.5405821371298283,-0.1725619677513837,-0.1543920040130615,0.6540594100952148,0.582912266254425,walking
1783090588710081000,1.3310810546875,0.2039537158370017,-0.6889134805966168,-0.0656757104814052,-0.103867307305336,0.6263265609741211,0.5465494394302368,walking
1783090588720125200,1.341125244140625,0.3568756019644439,-0.951803588722646,-0.0548708233505487,-0.0573213770985603,0.5577850937843323,0.4915618300437927,walking
1783090588730170400,1.35117041015625,0.4417304985597729,-1.1682542364306747,-0.0233785374999046,-0.0189257860183715,0.4814013838768005,0.4540128409862518,walking
1783090588740214000,1.361214111328125,0.3663805124126374,-1.2637481620706617,-0.0585860444813966,0.0228130929172039,0.4095501601696014,0.4309543371200561,walking
1783090588750259200,1.37125927734375,0.577888004630059,-1.3796043461292982,0.1378863756895065,0.0717611983418464,0.345742404460907,0.4007535576820373,walking
1783090588760303400,1.381303466796875,0.5326581391975284,-1.461063462806493,0.1720066719561815,0.121244415640831,0.3048732280731201,0.3634367883205414,walking
1783090588770347800,1.39134765625,0.3572929505936801,-1.5126625710099937,0.1102437510043382,0.1644382327795028,0.2822994887828827,0.342834860086441,walking
1783090588780392000,1.401391845703125,0.3408348600067198,-1.4663285437278448,0.2664946354240179,0.1971767246723175,0.2454411387443542,0.3378768861293793,walking
1783090588790436900,1.411436767578125,0.4128866813912987,-1.3378370422407984,0.5362269375950097,0.2209217250347137,0.1849599480628967,0.3433361053466797,walking
1783090588800480800,1.421480712890625,0.5558301943399012,-1.1909958642665297,0.6181342364311218,0.253803014755249,0.1070809811353683,0.3557735085487366,walking
1783090588810526000,1.43152587890625,0.7637867160774767,-0.9971345033768564,0.560473490101099,0.286827027797699,0.0409251302480697,0.3831057846546173,walking
1783090588820570000,1.441570068359375,0.9667448450058698,-0.802003268681839,0.4530839594841003,0.2891749143600464,-0.0271472036838531,0.4250201284885406,walking
1783090588830615000,1.451614990234375,1.1280381075069308,-0.7667850211106241,0.3855500539153814,0.2614644467830658,-0.0957209393382072,0.4771922528743744,walking
1783090588840659000,1.461658935546875,1.1538108466669916,-0.759976948530972,0.2564911278039217,0.2098088264465332,-0.1522378027439117,0.5328104496002197,walking
1783090588850704000,1.471703857421875,1.1440551763281226,-0.7260262366775423,0.0589116231739521,0.1438290029764175,-0.1934158653020858,0.5914932489395142,walking
1783090588860748000,1.481748046875,1.196542903934419,-0.8584211022786795,-0.1439163035035133,0.0809780582785606,-0.2191430926322937,0.6364042162895203,walking
1783090588870793000,1.49179296875,1.3072905128076673,-1.050763509972766,-0.2923334255576134,0.0357631742954254,-0.2418428063392639,0.6473205089569092,walking
1783090588880838000,1.501837890625,1.3698879848875103,-1.1034269594721495,-0.3887047185540199,0.0215360764414072,-0.2415742576122284,0.6640000939369202,walking
1783090588890882000,1.511882080078125,1.1073137377776203,-0.9170033473677932,-0.7139893965989351,0.066040962934494,-0.2034537643194198,0.7003341913223267,walking
1783090588900927000,1.521927001953125,0.9154144707411528,-0.7114717877548188,-1.1912696397066116,0.1779612153768539,-0.1316973567008972,0.7002812027931213,walking
1783090588910971000,1.531970947265625,0.8301809500917792,-0.6392948056206107,-1.5254542480438946,0.2665765583515167,-0.0318759605288505,0.6213083267211914,walking
1783090588921016000,1.54201611328125,0.6899127938322722,-0.7390436122260987,-1.7257079403191804,0.2807870209217071,0.055802009999752,0.5094806551933289,walking
1783090588931059700,1.552059814453125,0.9012759091429412,-0.8392730419553815,-1.71067695992589,0.2823564112186432,0.1239986419677734,0.4041396081447601,walking
1783090588941105000,1.56210498046875,1.1955309504128993,-0.8047897575952112,-1.8846189838588236,0.3032515048980713,0.1929596364498138,0.3015714287757873,walking
1783090588951149000,1.572149169921875,1.3068816397458314,-0.8113531346987932,-2.180494027546048,0.3274921178817749,0.2302974313497543,0.2142948806285858,walking
1783090588961194000,1.582194091796875,1.2793743318781257,-0.8393656886748969,-2.1309382617384194,0.3262335658073425,0.198722556233406,0.1285120099782943,walking
1783090588971238000,1.59223779296875,1.1476841804802418,-0.8507214146215468,-1.7023983764022588,0.2978280186653137,0.0751833096146583,0.0641500651836395,walking
1783090588981283000,1.602282958984375,1.1462364658899604,-0.7576232250116766,-1.0116478165715932,0.256948709487915,-0.1154405325651168,0.0355554856359958,walking
1783090588991327000,1.612326904296875,1.2583163462802769,-0.5792730292476713,-0.4526198491036892,0.2343960106372833,-0.323307991027832,0.0475213341414928,walking
1783090589001372000,1.622371826171875,1.3702930585570632,-0.3582333001837134,-0.0374222604215145,0.2610528767108917,-0.5361371636390686,0.1100477054715156,walking
1783090589011416000,1.632416015625,1.4310222525469958,-0.0586160012282431,0.2701823840260505,0.3469816446304321,-0.7317332625389099,0.2208836674690246,walking
1783090589021461000,1.6424609375,1.4230891214601695,0.2549069273523986,0.4007704194009304,0.4912985861301422,-0.8857479691505432,0.3628415167331695,walking
1783090589031505000,1.6525048828125,1.2669140787556767,0.5654767052158713,0.5198100558012724,0.6582981944084167,-0.9991014003753662,0.5266762375831604,walking
1783090589041549800,1.6625498046875,1.178233194131404,0.8312696951765567,0.7486456994384527,0.7999842166900635,-1.0976760387420654,0.7030888199806213,walking
1783090589051594000,1.672593994140625,1.1939898584507405,1.0680909307401627,0.984124434351921,0.8869884014129639,-1.1679084300994873,0.8757697939872742,walking
1783090589061639000,1.682638916015625,1.1809563354849817,1.3852806382000449,1.085426169487834,0.9145011901855468,-1.1659557819366455,1.046422839164734,walking
1783090589071682800,1.692682861328125,1.0926540749147533,1.7482785224370658,1.1143658482462169,0.912399172782898,-1.13095223903656,1.2048518657684326,walking
1783090589081728000,1.70272802734375,1.0674068209335208,1.9416347102835776,1.2419400887578724,0.8812731504440308,-1.0858150720596311,1.327653884887695,walking
1783090589091772000,1.71277197265625,1.0208303631976243,1.9526890421308576,1.3611568352907897,0.8095456957817078,-1.052812099456787,1.3978739976882937,walking
1783090589101816800,1.72281689453125,0.7480512406766414,1.7382196313679217,1.4359884966522454,0.7172579765319824,-0.981661021709442,1.415498971939087,walking
1783090589111861000,1.732861083984375,0.3191293702855706,1.2997004960700869,1.280593936800957,0.6398047208786011,-0.8490673303604126,1.3918991088867188,walking
1783090589121906000,1.742906005859375,-0.2083586727976799,0.8902123710758983,0.8651479263156652,0.5884283185005188,-0.648048460483551,1.3545501232147217,walking
1783090589131949800,1.75294970703125,-0.8412652386859059,0.529308390378207,0.18571721740067,0.5551888346672058,-0.3616723418235779,1.2957313060760498,walking
1783090589141995000,1.7629951171875,-1.329874100537598,0.2001017531165853,-0.7453297067582607,0.5151782631874084,-0.0082907658070325,1.2117596864700315,walking
1783090589152039200,1.7730390625,-1.4652657368019222,0.0716802115932107,-1.710603310167789,0.4518589377403259,0.3744385242462158,1.1018294095993042,walking
1783090589162083800,1.783083740234375,-1.3633563911616802,-0.0517265705080702,-2.5982243495762347,0.3727665841579437,0.7420886158943176,0.988217830657959,walking
1783090589172128000,1.7931279296875,-1.1803785355970262,-0.2422049744285642,-3.1278339148581025,0.3189283609390259,1.023756504058838,0.8742039203643799,walking
1783090589182173000,1.8031728515625,-0.8193433297351003,-0.5110414237383752,-3.1706758622407913,0.3183267712593078,1.1738160848617554,0.7777740955352783,walking
1783090589192216800,1.813216796875,-0.5123246684819459,-0.67069809801355,-2.7495091360211372,0.3581570088863373,1.1733665466308594,0.7102163434028625,walking
1783090589202262000,1.823261962890625,-0.2261938969567418,-0.764537826705724,-2.0073066213727,0.4210947453975677,1.0658830404281616,0.6720737218856812,walking
1783090589212306000,1.833305908203125,-0.005174333897978,-0.6967581296823918,-1.2896481808722018,0.4655098617076874,0.9388518929481506,0.6660661697387695,walking
1783090589222350800,1.843350830078125,0.0834434223622083,-0.4877226901343092,-0.7193249124079942,0.488748550415039,0.8127443194389343,0.6777173280715942,walking
1783090589232395000,1.85339501953125,0.0721171417057514,-0.1547571387305855,-0.16279636054039,0.4902993142604828,0.6942989230155945,0.7157044410705566,walking
1783090589242440000,1.86343994140625,0.0658694794878363,0.2194358009986579,0.311722601160407,0.474827378988266,0.5916586518287659,0.7946399450302124,walking
1783090589252483800,1.87348388671875,0.0536674389101564,0.5280545909248292,0.6954086147695779,0.4393402338027954,0.4952138364315033,0.8878100514411926,walking
1783090589262529000,1.883529052734375,-0.0974659563653171,0.6248719471883029,1.038729884764552,0.401002287864685,0.4270093739032745,0.9879740476608276,walking
1783090589272573000,1.893572998046875,-0.409568350623548,0.6167010618228465,1.232871231639385,0.3849074840545654,0.379718005657196,1.0828555822372437,walking
1783090589282618000,1.9036181640625,-0.7255667294070124,0.5898904675150289,1.2531430352956057,0.401726096868515,0.3330743014812469,1.1703771352767944,walking
1783090589292662800,1.913662841796875,-0.8560314306631683,0.5964473418125883,1.2641431527376177,0.4191146790981293,0.2852953374385834,1.243330955505371,walking
1783090589302707000,1.92370703125,-0.6987639165468513,0.5651736306160688,1.302380236673355,0.4080237150192261,0.2063691318035125,1.2908209562301636,walking
1783090589312752000,1.933752197265625,-0.3147784815996885,0.5602625872967765,1.3621341558903457,0.3825172781944275,0.0865614935755729,1.312167763710022,walking
1783090589322795800,1.943795654296875,0.1465579040534794,0.5979916851777582,1.3302537475049494,0.3681296408176422,-0.0188485253602266,1.324173927307129,walking
1783090589332841000,1.953841064453125,0.5279485002018511,0.5878376997036859,0.9930962608367204,0.3734956681728363,-0.0954450294375419,1.3329706192016602,walking
1783090589342885000,1.963885009765625,0.7176271685793996,0.3913018954403698,0.5255319405794143,0.4046193957328796,-0.1485843807458877,1.3035200834274292,walking
1783090589352930000,1.973929931640625,0.760867321499437,0.0071379644044325,0.1588087522089481,0.4513096809387207,-0.1979687064886093,1.255405068397522,walking
1783090589362974000,1.983973876953125,0.9316311537876724,-0.3148034333778545,0.0391956998348236,0.4869672358036041,-0.2568153440952301,1.185943603515625,walking
1783090589373019000,1.994018798828125,0.7475466521553695,-0.5897690330924465,0.1386807409375905,0.4897470474243164,-0.3273315727710724,1.1386985778808594,walking
1783090589383062800,2.004062744140625,0.5113493937090039,-0.50536414528694,0.4543669850319624,0.4478192925453186,-0.4057967364788055,1.1266814470291138,walking
1783090589393108000,2.01410791015625,0.4615085273496806,-0.3146890497505664,0.7561211498856544,0.3941283822059631,-0.4581328928470611,1.0879029035568235,walking
1783090589403152000,2.02415185546875,0.46391558849141,-0.30840554903429,0.7930605952262878,0.3544296026229858,-0.5035424828529358,1.036396026611328,walking
1783090589413197000,2.034197021484375,0.7114315288096666,-0.2047751517551019,0.7308610364228486,0.3379113674163818,-0.5060240626335144,0.9939130544662476,walking
1783090589423241000,2.044240966796875,0.8355622047387063,-0.2390748231766745,0.4490571881860494,0.3206470608711242,-0.4784991145133972,0.965125322341919,walking
1783090589433286000,2.054285888671875,1.089874819459766,-0.3604773527834564,0.3610094868987799,0.3051192164421081,-0.4382065534591675,0.959944188594818,walking
1783090589443330000,2.064330078125,1.3995621154002844,-0.4917497171606868,0.4265197776854038,0.2876403629779815,-0.4066212177276611,0.9676449298858644,walking
1783090589453375000,2.074375,1.4411610769845544,-0.6081226185698062,0.5554015936642885,0.2770364582538605,-0.3912947177886963,0.9898996353149414,walking
1783090589463419000,2.0844189453125,1.2646945030100645,-0.7419231862504034,0.6991676750421524,0.2973687052726745,-0.3859005868434906,1.009591817855835,walking
1783090589473464000,2.094464111328125,0.9181608468398452,-0.9820683055397122,0.7405524093538522,0.3508825302124023,-0.387925386428833,1.0127018690109253,walking
1783090589483508000,2.104508056640625,0.707771544997394,-1.166140970603749,0.7647481084555388,0.425211638212204,-0.3872660398483276,1.0085078477859497,walking
1783090589493553000,2.114552978515625,0.6907815394908189,-1.256472325848788,0.6751935097366571,0.4855122566223144,-0.3771052658557892,1.0088002681732178,walking
1783090589503597000,2.12459716796875,0.7945458653479814,-1.1709393838614224,0.4999135151982307,0.5225661396980286,-0.3599770963191986,1.0370452404022217,walking
1783090589513641700,2.134641845703125,0.7793494652599096,-0.9855521290674804,0.3329091815739869,0.5556806921958923,-0.3113563060760498,1.092095971107483,walking
1783090589523686000,2.144685791015625,0.638688071899116,-0.830478617864102,0.1598562154352664,0.5876244306564331,-0.2450277805328369,1.1415389776229858,walking
1783090589533731000,2.15473095703125,0.4742550500676035,-0.7225105567067861,0.1000999581307172,0.5967766642570496,-0.1872792541980743,1.1879945993423462,walking
1783090589543774700,2.164774658203125,0.3418813003197312,-0.6314576091889291,0.1021709191858768,0.577104389667511,-0.1371583193540573,1.241103172302246,walking
1783090589553820000,2.17481982421875,0.186655375033617,-0.5555474318757653,0.0988929204285144,0.5375615358352661,-0.0834008157253265,1.2964502573013306,walking
1783090589563864000,2.184864013671875,0.0639759208261966,-0.547483660146594,0.0765554164141416,0.4855523109436035,-0.0621687844395637,1.3172318935394287,walking
1783090589573909000,2.194908935546875,0.09809913970232,-0.7846836658947169,0.1253799453377723,0.4170947074890136,-0.0435466319322586,1.3020340204238892,walking
1783090589583953000,2.204952880859375,0.1491390065878629,-0.9094479635521768,0.0301519771575927,0.3610452711582184,-0.0250880755484104,1.2923505306243896,walking
1783090589593998000,2.214998046875,0.280666660900414,-0.806306299638003,-0.1563455769658088,0.3292380571365356,-0.0101820956915616,1.2901262044906616,walking
1783090589604042000,2.2250419921875,0.4569941186651587,-0.7449876153223216,-0.3591168050199746,0.3195820450782776,-0.0093148695304989,1.270274639129639,walking
1783090589614087000,2.2350869140625,0.5117103359758853,-0.9211041337501256,-0.4923357734203338,0.3310807943344116,-0.0454366542398929,1.2294070720672607,walking
1783090589624131000,2.245131103515625,0.3714934715121984,-1.2938069079868495,-0.4506348127663135,0.3412446081638336,-0.1227592602372169,1.1713736057281494,walking
1783090589634176000,2.255176025390625,-0.176929223050177,-1.6821138593949376,-0.2573509595036506,0.34592404961586,-0.170352891087532,1.0637015104293823,walking
1783090589644220000,2.265219970703125,-0.9273205971121788,-2.158788099433482,-0.4277379213035106,0.3642192780971527,-0.2014544904232025,0.9587019681930542,walking
1783090589654264800,2.275264892578125,-0.9006099925801158,-1.9351503167003392,-0.7973246824115514,0.3892007768154144,-0.25386443734169,0.8982130885124207,walking
1783090589664309000,2.28530908203125,-0.05641629922688,-1.2070382867246865,-1.3114566925764084,0.3898509740829468,-0.3222116827964782,0.9038131237030028,walking
1783090589674354000,2.29535400390625,0.5279311106756329,-0.3941474210646003,-2.0715584365308284,0.3849747478961944,-0.3456213772296905,0.9847928881645204,walking
1783090589684397800,2.305397705078125,0.978346727733314,0.3349037894573062,-2.804575774204731,0.4171870350837707,-0.2918715178966522,1.1232727766036987,walking
1783090589694443000,2.315443115234375,1.130451013867557,0.7473071443110704,-3.29029943600893,0.4719791710376739,-0.176261305809021,1.272309422492981,walking
1783090589704487000,2.32548681640625,0.7823509851634501,0.8235977723091841,-3.3839223070800304,0.528480052947998,0.0027215047739446,1.409494161605835,walking
1783090589714531800,2.33553173828125,0.0512248680636286,0.7269752079654485,-3.116953039881587,0.5617557168006897,0.1810108125209808,1.5478559732437134,walking
1783090589724577000,2.345576904296875,-0.1479205707088112,0.9777321029663084,-2.4919208606302736,0.5576261281967163,0.3269588649272918,1.6331738233566284,walking
1783090589734621000,2.355620849609375,0.08179916228652,1.1069423471819608,-1.7850147002905603,0.5016416907310486,0.4035897254943847,1.6183797121047974,walking
1783090589744665900,2.365665771484375,0.1360939393147826,0.9091413087558,-0.9434925642341376,0.3800235688686371,0.4272137880325317,1.545507550239563,walking
1783090589754710000,2.3757099609375,0.1637204896479845,0.7197799626991153,-0.2916512885123491,0.2652445137500763,0.4151858985424042,1.488413691520691,walking
1783090589764755000,2.3857548828125,0.1014686161354184,0.7111604567833244,0.1692109037578106,0.2036773562431335,0.3646018207073211,1.4350205659866333,walking
1783090589774799000,2.395799072265625,0.0547942509829997,0.672786886986345,0.5148363590419293,0.199734017252922,0.2937574684619903,1.3682795763015747,walking
1783090589784844300,2.40584423828125,0.1897691231399774,0.5616156458735466,0.693424162954092,0.2165788412094116,0.1973724067211151,1.2868012189865112,walking
1783090589794888000,2.415887939453125,0.5997080606415868,0.4541255774915218,0.8327472934484481,0.2173357158899307,0.1162695661187172,1.1983046531677246,walking
1783090589804933000,2.42593310546875,1.0905202777564524,0.5223509724557399,0.9854881239205598,0.1937775164842605,0.0397987850010395,1.159381866455078,walking
1783090589814977300,2.435977294921875,1.3838999974966049,0.8100896175689994,1.151719719606638,0.1496891528367996,0.001264973077923,1.156572699546814,walking
1783090589825022000,2.44602197265625,1.5100029964119197,1.0187499036617575,1.1820803710788488,0.1253752559423446,-0.0282567795366048,1.1975362300872805,walking
1783090589835066000,2.456066162109375,1.6329752960860728,1.2417470504038035,1.1671183642685412,0.1440725177526474,-0.0291273649781942,1.2782694101333618,walking
1783090589845111000,2.466111083984375,1.6315958244264124,1.385455117984116,0.9940595529109238,0.1905194818973541,-0.026681151241064,1.3855761289596558,walking
1783090589855155000,2.476155029296875,1.9158415128573776,1.5528013969138263,0.9162871619224549,0.2247879803180694,-0.0086246533319354,1.507335543632507,walking
1783090589865200000,2.4862001953125,2.053663006617129,1.633361811185628,0.7425152338594198,0.2125326246023178,0.0765089020133018,1.6335400342941284,walking
1783090589875244000,2.496244140625,1.874448010717332,1.635980907642841,0.3452116137862205,0.1737301051616668,0.2000444233417511,1.7578403949737549,walking
1783090589885289200,2.506289306640625,1.6409896757155655,1.523698636548221,-0.0172159232169389,0.1549676358699798,0.3251981437206268,1.8361971378326416,walking
1783090589895333000,2.5163330078125,1.4311641452357171,1.2552094663061202,-0.0416056835860013,0.1443522721529007,0.4105498194694519,1.8615379333496096,walking
1783090589905378000,2.5263779296875,1.3085323295623064,0.9773400349088012,0.0929477482885122,0.0938854068517685,0.4540441334247589,1.866573691368103,walking
1783090589915422000,2.536421875,1.2447601146146654,0.7078058125931769,0.2081909150153398,0.0312795490026474,0.4487814605236053,1.859918475151062,walking
1783090589925467100,2.546467041015625,1.3161337444767356,0.4076331813098862,0.2414823592424392,-0.0280564241111278,0.4399673044681549,1.814974665641785,walking
1783090589935511000,2.556510986328125,1.3297282623261213,-0.0286903984387405,-0.0010585691422224,-0.06808852404356,0.4392250776290893,1.7528913021087646,walking
1783090589945556200,2.56655615234375,1.2863213745370508,-0.3533413634236901,-0.2794832963347435,-0.1013633161783218,0.4270816445350647,1.6788535118103027,walking
1783090589955600100,2.57660009765625,1.2730617877304553,-0.5710225758399814,-0.484125578957796,-0.0895753651857376,0.4139077663421631,1.612035632133484,walking
1783090589965645000,2.58664501953125,1.422941237422079,-0.5092345935121179,-0.5055599966526031,-0.0367310047149658,0.3914437592029571,1.5508569478988647,walking
1783090589975689200,2.596689208984375,1.5605392976894974,-0.4348457440147176,-0.3790571847647428,0.0048084501177072,0.3649437129497528,1.479042410850525,walking
1783090589985734000,2.60673388671875,1.650148695335537,-0.5102263444958255,-0.2263163542926311,0.0026598023250699,0.3418107628822326,1.4123841524124146,walking
1783090589995778000,2.616778076171875,1.5362962523147463,-0.5651549989808351,-0.2074941649228334,-0.0193861126899719,0.3384469151496887,1.3628923892974854,walking
1783090590005823200,2.6268232421875,1.288745094552636,-0.5398375658402219,-0.2191220588743686,-0.0214759018272161,0.3057244718074798,1.339624047279358,walking
1783090590015867000,2.636866943359375,1.413952313672006,-0.4092559236735105,-0.0097486560761928,-0.0132360830903053,0.2096666395664215,1.3461179733276367,walking
1783090590025912000,2.646912109375,1.5009646805621684,-0.2567079488923773,0.2080517988055944,-0.0337831564247608,0.0817031115293502,1.3513892889022827,walking
1783090590035956200,2.656956298828125,1.4054416749581693,-0.2702547186098992,0.294269946578145,-0.0761939957737922,-0.0224067755043506,1.359707951545715,walking
1783090590046001000,2.6670009765625,1.3080663194857538,-0.2878943471316248,0.2838432451099157,-0.1111196279525756,-0.103898748755455,1.3888543844223022,walking
1783090590056045000,2.677045166015625,1.3048312830872832,-0.103454675386101,0.3209966254621744,-0.1031248196959495,-0.1617471426725387,1.4274158477783203,walking
1783090590066090000,2.687090087890625,1.4527026078268883,0.1285286186270415,0.3638485097169875,-0.0783122777938842,-0.1944222003221511,1.4600313901901243,walking
1783090590076134000,2.6971337890625,1.529680487436801,0.1151739008828997,0.261009482011199,-0.0727830231189727,-0.182570070028305,1.487051486968994,walking
1783090590086179000,2.707178955078125,1.4319703470520675,0.0288517812792211,-0.0544143117547035,-0.0757989808917045,-0.1231555044651031,1.5038692951202393,walking
1783090590096223200,2.71722314453125,1.3109586799263953,-0.1055766359761357,-0.2204161903381347,-0.0675873905420303,-0.0683002471923828,1.5031400918960571,walking
1783090590106268200,2.72726806640625,1.366219379377365,-0.44924036273323,-0.1717570811092853,-0.0451813451945781,-0.0418290644884109,1.483127236366272,walking
1783090590116312000,2.73731201171875,1.4912315143160522,-0.7631947415336966,0.0011801496952772,-0.0275285821408033,-0.01573221758008,1.4287530183792114,walking
1783090590126357000,2.74735693359375,1.5080809423081576,-0.9932355962421744,0.0303583133846521,-0.0267270281910896,0.0256954319775104,1.3463447093963623,walking
1783090590136401200,2.757401123046875,1.4078404066629706,-1.276541884931177,-0.0693850863933563,-0.0277222543954849,0.0872714444994926,1.2485437393188477,walking
1783090590146446000,2.767446044921875,1.349524703555554,-1.433584650380909,-0.1993412536054849,-0.0077970949932932,0.1477705538272857,1.156968116760254,walking
1783090590156490000,2.777489990234375,1.2078117553152143,-1.4258343285150823,-0.2434136195659637,0.018719732761383,0.185236170887947,1.0761557817459106,walking
1783090590166535200,2.78753515625,1.282171999772638,-1.3306019764207302,0.0324970789790153,0.0181817337870597,0.1644013673067093,1.0199593305587769,walking
1783090590176579000,2.7975791015625,1.500818696220219,-1.183145150766149,0.3972054203957319,-0.012811335735023,0.1416784673929214,0.9759339094161988,walking
1783090590186624000,2.8076240234375,1.474065129329264,-1.144040344085172,0.4341518799990415,-0.0446896404027938,0.1360416263341903,0.9512853026390076,walking
1783090590196668200,2.817668212890625,1.3725496053121984,-1.0852443831801415,0.3825608089715242,-0.0568062216043472,0.1460500508546829,0.9443480372428894,walking
1783090590206713000,2.827713134765625,1.1156265158317982,-1.0933731829695403,0.1791051057845354,-0.0405223667621612,0.1612278372049331,0.9566835761070251,walking
1783090590216758000,2.837758056640625,0.8563191615633666,-1.0908019442420451,0.0133101479500532,0.0009622268844395,0.1334460079669952,0.990156590938568,walking
1783090590226802200,2.84780224609375,0.9574309270851312,-0.8952703851178287,0.1281792206674814,0.0357971712946891,0.0838182717561721,1.0338798761367798,walking
1783090590236847000,2.85784716796875,0.9256310365900396,-0.6954545728031546,0.1240571723014116,0.046017050743103,0.0523759238421916,1.0904762744903564,walking
1783090590246891000,2.86789111328125,0.783548670515418,-0.5063995162166655,0.0196761758506298,0.037189345806837,0.0672159045934677,1.16282057762146,walking
1783090590256936200,2.877936279296875,0.5656451936505734,-0.3011298224102705,-0.068350482648611,0.0284536425024271,0.0963351726531982,1.24491548538208,walking
1783090590266980000,2.88797998046875,0.5122020650155842,-0.1676827443424612,-0.0089145433396101,0.0345208048820495,0.1092243194580078,1.3205486536026,walking
1783090590277025000,2.89802490234375,0.5889234856463968,-0.0535631748180836,-0.0293505976468324,0.0562372878193855,0.1153690293431282,1.3786945343017578,walking
1783090590287069200,2.908069091796875,0.7449949218459427,-0.0163538995601236,-0.1234890170246362,0.0702001526951789,0.0940450727939605,1.4089362621307373,walking
1783090590297114000,2.918114013671875,0.9821598562806844,-0.0571945170577615,-0.136581722831726,0.0627606138586998,0.03184774518013,1.4040427207946775,walking
1783090590307158000,2.928157958984375,1.1798074577108024,-0.1393898390550166,-0.1442465583711862,0.0597792342305183,-0.070849172770977,1.3673666715621948,walking
1783090590317203000,2.938202880859375,1.3404017781622708,-0.2511082657217979,-0.1592132413566112,0.0682680606842041,-0.1890319883823394,1.3274387121200562,walking
1783090590327247000,2.9482470703125,1.4369928513891994,-0.2930086944706738,-0.2063058319211006,0.0829542502760887,-0.2983561754226684,1.2996653318405151,walking
1783090590337292300,2.958292236328125,1.5532510403774678,-0.2838968749932944,-0.3985615111798047,0.1039298400282859,-0.3638337254524231,1.2877024412155151,walking
1783090590347336000,2.9683359375,1.6767083470895885,-0.1585614994496107,-0.6793067902743816,0.1317193508148193,-0.3886160552501678,1.274433135986328,walking
1783090590357381000,2.978381103515625,1.768940494454652,-0.0050305415131151,-0.9958715707689524,0.1332093924283981,-0.4091682136058807,1.2393014430999756,walking
1783090590367425000,2.988425048828125,1.887242318099737,0.0264721196010708,-1.2263619958758354,0.1257943511009216,-0.4435856640338897,1.1890363693237305,walking
1783090590377470000,2.998469970703125,2.0188408456914124,-0.0818586373887956,-1.4180360758543014,0.1405463963747024,-0.4754866063594818,1.1572108268737793,walking
1783090590387514000,3.00851416015625,2.0496379888847467,-0.2700802388258278,-1.5933540643155577,0.1805992275476455,-0.4938594996929168,1.1342352628707886,walking
1783090590397559000,3.01855908203125,1.9651821746096017,-0.5923866317123174,-1.68363405469954,0.224702775478363,-0.467777281999588,1.1019843816757202,walking
1783090590407603000,3.02860302734375,1.7762931953050196,-0.8660643105082213,-1.6738123333871364,0.243325725197792,-0.3845753371715545,1.057328224182129,walking
1783090590417648000,3.038648193359375,1.3927759623914957,-0.9662214056536554,-1.6229998455166816,0.2305787801742553,-0.251246839761734,1.0139477252960205,walking
1783090590427692300,3.0486923828125,0.9800346808202564,-0.7657125695735215,-1.5362889457911253,0.1939260363578796,-0.0989883169531822,0.9837397933006288,walking
1783090590437737000,3.058737060546875,0.6683861678093671,-0.4163572801113128,-1.4135691595733164,0.1511000096797943,0.0321177691221237,0.9551259875297546,walking
1783090590447781000,3.068781005859375,0.5202656906142831,-0.3606432839348912,-1.1988865444511174,0.1220569536089897,0.1073487028479576,0.9186451435089112,walking
1783090590457826000,3.078825927734375,0.6360689754419029,-0.489479068814963,-1.0292881026804446,0.1332249194383621,0.1217872947454452,0.8981307744979858,walking
1783090590467870000,3.088869873046875,0.8397495734259486,-0.3719090665757656,-1.0513760158479213,0.2024160176515579,0.0844298973679542,0.9099802374839784,walking
1783090590477915100,3.0989150390625,1.0028422865644098,-0.0909738178670406,-1.2387176195800305,0.3043413162231445,0.0323653668165206,0.9310447573661804,walking
1783090590487959000,3.108958984375,1.042996163906902,0.1144284893430769,-1.3568530006170272,0.3689339756965637,-0.0252770110964775,0.9475999474525452,walking
1783090590498004000,3.11900390625,1.1406260786622762,0.3197816967144608,-1.098098604056239,0.387443482875824,-0.1045345515012741,0.9842197895050048,walking
1783090590508048100,3.129048095703125,1.205493395370245,0.5501571171395481,-0.5441209057152271,0.3894419968128204,-0.2052906155586242,1.013329267501831,walking
1783090590518093000,3.139093017578125,1.0968760765239596,0.6328714945748448,0.1065460655301809,0.396906316280365,-0.3404572308063507,1.0255409479141235,walking
1783090590528137000,3.149136962890625,0.996093981347978,0.6046136606007814,0.8702244989275931,0.4181191921234131,-0.5370520353317261,1.0381439924240112,walking
1783090590538182100,3.15918212890625,0.8107488121300935,0.6905943463556468,1.5985662460058927,0.4631202220916748,-0.7826346755027771,1.0589531660079956,walking
1783090590548226000,3.16922607421875,0.6060954235911369,0.7941961751274764,2.2507722633868457,0.5229119658470154,-1.0497184991836548,1.0848926305770874,walking
1783090590558271200,3.179271240234375,0.4277196549944579,0.8969566577043384,2.7637445821225644,0.5888947248458862,-1.2962534427642822,1.1033300161361694,walking
1783090590568315100,3.189315185546875,0.3011922931872308,1.0023246924310922,3.066037676158547,0.654175341129303,-1.4753215312957764,1.1054226160049438,walking
1783090590578360000,3.199360107421875,0.0809158035807311,0.9999329749889672,2.9148803154855965,0.7209493517875671,-1.520681858062744,1.1018987894058228,walking
1783090590588404200,3.209404296875,-0.0749979578390717,0.9019953094586728,2.2656471764355897,0.7775883078575134,-1.4160888195037842,1.0942914485931396,walking
1783090590598449000,3.219448974609375,-0.0459422514855861,0.737186074725911,1.3914724785774946,0.8004446029663086,-1.200400710105896,1.089565396308899,walking
1783090590608493000,3.2294931640625,0.1254693771868944,0.5986696575045586,0.4394423876225948,0.7755188941955566,-0.9282415509223938,1.0937693119049072,walking
1783090590618538200,3.239538330078125,0.2400026420786976,0.4801194120563566,-0.3661369129151106,0.7112109661102295,-0.5860636830329895,1.098210096359253,walking
1783090590628582000,3.249581787109375,0.2447919221818447,0.2370740412808954,-1.3008978891611098,0.6250052452087402,-0.185975506901741,1.0936144590377808,walking
1783090590638627000,3.259626953125,0.128144441615045,-0.0582634614635258,-2.154980231583118,0.5588976144790649,0.2219696342945099,1.0732274055480957,walking
1783090590648671200,3.269671142578125,0.0916571239560842,-0.3621664749141782,-2.712732772287726,0.5305829644203186,0.6493226885795593,1.043803095817566,walking
1783090590658716000,3.2797158203125,0.1133925704240799,-0.5132764893140643,-3.199449536782503,0.5243250727653503,1.0083189010620115,1.0150587558746338,walking
1783090590668760000,3.289760009765625,0.2250377126589417,-0.3904659560728818,-3.170907332909107,0.5182810425758362,1.2540279626846311,0.9939862489700316,walking
1783090590678805000,3.299804931640625,0.3086437782369554,-0.0916079510521143,-2.723415494343638,0.4965310096740722,1.361975908279419,1.0015642642974854,walking
1783090590688849000,3.309848876953125,0.4355955029360949,0.203957953620702,-1.9969991623699663,0.446355253458023,1.2965718507766724,1.0322247743606567,walking
1783090590698894000,3.31989404296875,0.5603866886004806,0.3767863902885466,-0.9594880057454108,0.3889145851135254,1.102410912513733,1.0869735479354858,walking
1783090590708938200,3.329938232421875,0.550291557174176,0.4260813862681388,-0.1246130526185035,0.3658082187175751,0.856296718120575,1.1541826725006104,walking
1783090590718983200,3.339983154296875,0.3948183791287243,0.2958860765378922,0.3954828343868255,0.3724070191383362,0.624071478843689,1.214929461479187,walking
1783090590729027000,3.350027099609375,0.1930747405566275,0.1074007826633751,0.685139734211564,0.3883763551712036,0.4186537265777588,1.2489761114120483,walking
1783090590739072000,3.360072021484375,0.0263661750085651,-0.1932144412882626,0.9557914893150328,0.3947037756443023,0.2324274033308029,1.248720645904541,walking
1783090590749116200,3.3701162109375,-0.1254987494118511,-0.4292209264028817,1.1471581107795237,0.3960459530353546,0.0958689749240875,1.241676688194275,walking
1783090590759161000,3.3801611328125,-0.1909894587151706,-0.5069685482762754,1.1552005474597216,0.4022774696350097,-0.0242401212453842,1.224929690361023,walking
1783090590769206000,3.3902060546875,-0.0348098859660327,-0.5293983336839825,1.090896125331521,0.4044617414474487,-0.0938240885734558,1.2048341035842896,walking
1783090590779250200,3.400250244140625,0.1984082105390727,-0.4558446929017081,0.7935048318624496,0.3991916179656982,-0.110672578215599,1.1896905899047852,walking
1783090590789295000,3.410295166015625,0.4088675088778138,-0.3824943561391905,0.5023083013802766,0.3945473730564117,-0.1151894703507423,1.1793280839920044,walking
1783090590799339000,3.420339111328125,0.6601159137226641,-0.3437165894554927,0.3344844680666923,0.4149591624736786,-0.1150203570723533,1.1942780017852783,walking
1783090590809384200,3.43038427734375,0.922169936350733,-0.178291232118383,0.1031605147451162,0.4510152041912079,-0.1142189875245094,1.2322993278503418,walking
1783090590819428000,3.440427978515625,1.1638481104262173,-0.0216903286846354,-0.0456289477527141,0.4613623917102813,-0.1127129718661308,1.293537139892578,walking
1783090590829473000,3.45047314453125,1.3564369671620429,0.0397412779536098,-0.0936310543775558,0.4244765043258667,-0.1206725537776947,1.3701316118240356,walking
1783090590839517200,3.46051708984375,1.5273038214333354,0.0236815390344709,-0.0260118086129426,0.3713072836399078,-0.1499095410108566,1.4525463581085205,walking
1783090590849562000,3.47056201171875,1.6454507467776536,0.0121396063333377,0.0524462265521287,0.3650365471839905,-0.1992093622684478,1.5327489376068115,walking
1783090590859606000,3.48060595703125,1.6353334035195408,0.0917372765202075,0.1246229894906282,0.3713530302047729,-0.2218699306249618,1.6116926670074463,walking
1783090590869651200,3.490651123046875,1.3846873484820126,0.1026535881362855,0.2798918771356344,0.3164515197277069,-0.2298424541950225,1.677985429763794,walking
1783090590879695000,3.500695068359375,1.003894572096318,0.0339382907632738,0.5596884772032499,0.2304993271827697,-0.2471285015344619,1.7648917436599731,walking
1783090590889740300,3.510740234375,0.7362279702834784,0.4201468085873872,0.8846119207203388,0.155320331454277,-0.2802166938781738,1.893846035003662,walking
1783090590899784200,3.5207841796875,0.3592611819267273,0.8693012466028333,1.1217997976392506,0.1361314505338668,-0.3224813342094421,1.9480605125427248,walking
1783090590909829000,3.5308291015625,0.6337023924410343,0.6042074178874492,1.2932131798774005,0.1352848410606384,-0.4124704301357269,1.9010521173477173,walking
1783090590919873000,3.540873046875,1.131163692181557,0.0486096805965527,1.2341893285006285,0.1227924823760986,-0.432784229516983,1.7921727895736694,walking
1783090590929918000,3.55091796875,1.0045618038333952,-0.5345651783952489,0.6010474925518036,0.1406763643026352,-0.36232390999794,1.6811902523040771,walking
1783090590939962000,3.560962158203125,0.8962301700606942,-0.9188211373794825,0.1445581085383891,0.2227584421634674,-0.2835191190242767,1.5562952756881714,walking
1783090590950007300,3.57100732421875,0.791393684927374,-1.2703753251254557,0.1366354988455772,0.3328473269939422,-0.2520279884338379,1.4207675457000732,walking
1783090590960051000,3.581051025390625,0.7299041740894318,-1.3832745590746405,0.3754150288701057,0.4187041819095611,-0.2710506618022918,1.2995977401733398,walking
1783090590970096000,3.59109619140625,0.690247140353173,-1.4621727392226456,0.6578823094516992,0.4739148318767547,-0.2919841408729553,1.1613914966583252,walking
1783090590980140300,3.601140380859375,0.4214288842871785,-1.6075227287910878,0.8298626779228448,0.4583710134029388,-0.3050861060619354,1.0891588926315308,walking
1783090590990185000,3.61118505859375,0.2350209081433713,-1.3496934842512012,0.9049906918823718,0.4389324486255646,-0.3121293187141418,1.0356298685073853,walking
1783090591000229000,3.62122900390625,0.5573745011724531,-1.34086457336843,0.9160743959546088,0.4151911735534668,-0.3415369987487793,0.9912593960762024,walking
1783090591010274000,3.631274169921875,0.65894380120337,-1.2902385479807852,0.6354460212379693,0.3691374659538269,-0.3259347677230835,0.9561765789985656,walking
1783090591020318000,3.64131787109375,0.8385751228190959,-1.357778298768401,0.1492307765245437,0.3171482980251312,-0.2749054133892059,0.9536386132240297,walking
1783090591030363100,3.651363037109375,1.101097493611276,-1.3838926909729838,-0.378338807362318,0.2820561528205871,-0.1717304289340973,0.9653902053833008,walking
1783090591040407300,3.6614072265625,1.3124739067949354,-1.3280083066657185,-0.8824240552872419,0.2708714008331299,-0.0101663097739219,0.9845117330551147,walking
1783090591050452200,3.6714521484375,1.4177677803069353,-1.332351012045145,-1.3244091131299731,0.2701716423034668,0.1557306498289108,1.0131571292877195,walking
1783090591060496100,3.68149609375,1.505040259438008,-1.359498254428804,-1.417495977628231,0.274412453174591,0.305588036775589,1.0518296957015991,walking
1783090591070541000,3.691541015625,1.3826720631368457,-1.3401989490665491,-1.266490008124709,0.2782402634620666,0.3941523730754852,1.066779375076294,walking
1783090591080585000,3.7015849609375,1.2436566834174096,-1.3573282169133425,-1.018235378268361,0.2795473635196686,0.4136464297771454,1.0744456052780151,walking
1783090591090630100,3.711630126953125,1.096225065269321,-1.1802728832654654,-0.7053150917559862,0.2720857262611389,0.337239921092987,1.0917373895645142,walking
1783090591100674000,3.721674072265625,1.0199030192196368,-1.119130213103816,-0.3412356958925724,0.2752993702888489,0.1748496890068054,1.0888023376464844,walking
1783090591110719200,3.73171923828125,0.955396790909022,-1.3001616838410497,-0.152260938000679,0.2958556711673736,-0.0338353887200355,1.059855818748474,walking
1783090591120763100,3.74176318359375,0.6289372238658368,-1.6340785811528562,-0.2893903578430414,0.3324829339981079,-0.1719802170991897,0.9725946187973022,walking
1783090591130808000,3.75180810546875,-0.3105070878908038,-2.108103621856868,-0.891387113943696,0.432487279176712,-0.1512501686811447,0.8909692764282227,walking
1783090591140852200,3.761852294921875,-1.1739466028533876,-1.7563368873387577,-1.904510263764858,0.5735386610031128,-0.0790212377905845,0.8944979906082153,walking
1783090591150897200,3.771897216796875,0.523907115856558,-0.4433929518792778,-2.2253449766635893,0.6127287149429321,-0.0551592297852039,0.9508137702941896,walking
1783090591160941000,3.781941162109375,2.063712253075093,0.8519736797049641,-2.323472757938504,0.5414041876792908,0.0619636625051498,1.0352308750152588,walking
1783090591170986200,3.791986328125,1.9700411589480935,1.6848486911863088,-2.6356775896579028,0.4709193110466003,0.2995317280292511,1.175279140472412,walking
1783090591181030100,3.802030029296875,1.6417317262545228,2.099732245483249,-2.825196537429094,0.4254737794399261,0.5874631404876709,1.3046683073043823,walking
1783090591191075000,3.812074951171875,1.425772661455721,2.202087873586267,-2.738707171499729,0.3564594388008117,0.8461269736289978,1.3674381971359253,walking
1783090591201119200,3.822119140625,1.2530252541348337,1.9276856799080968,-2.3231547780305144,0.2251924872398376,0.9771496653556824,1.3822836875915527,walking
1783090591211164200,3.8321640625,1.0655294827543198,1.5655296533226966,-1.498023220282793,0.0836581140756607,1.0094176530838013,1.3928991556167605,walking
1783090591221208000,3.8422080078125,0.0136228671610355,1.4120169616952538,-0.7798755349606276,0.0195568948984146,0.9418013095855712,1.350928783416748,walking
1783090591231253200,3.852253173828125,-0.9700862643882632,1.1745813936255871,0.1165232696652412,0.0556656867265701,0.7019824385643005,1.1982372999191284,walking
1783090591241297000,3.862296875,-1.3058293542139232,0.6755236184738576,1.23681616987288,0.100110113620758,0.417654812335968,0.9870651960372924,walking
1783090591251342000,3.872342041015625,-2.132225378939509,0.4311311439383775,1.494617795753479,0.1069423332810401,0.1264087408781051,0.78761225938797,walking
1783090591261386200,3.88238623046875,-2.0468312609009445,0.3283602130327374,1.8579314679414032,0.1262385249137878,-0.2449288368225097,0.6096430420875549,walking
1783090591271431200,3.89243115234375,-0.6168992878086864,0.3752293335722759,2.302426462778449,0.1587123572826385,-0.5632123351097107,0.4269305169582367,walking
1783090591281475000,3.90247509765625,0.0318850845605135,0.5372621623942628,1.8618997870504856,0.1816674619913101,-0.7611371874809265,0.2912680208683014,walking
1783090591291520000,3.91252001953125,0.5715735607862472,0.7596812535200268,1.38687462939322,0.2015433460474014,-0.8313302397727966,0.2821537852287292,walking
1783090591301564200,3.922564208984375,0.8070330064773559,0.95105072452873,0.9224240572422744,0.2052251696586609,-0.7458411455154419,0.3215339481830597,walking
1783090591311609000,3.932609130859375,0.6052069503188133,1.036106623588875,0.4888824180960655,0.1899198591709137,-0.5476465225219727,0.3967660665512085,walking
1783090591321653200,3.9426533203125,0.6603859628356993,1.221666896862164,0.4573129753559827,0.1362427771091461,-0.3485462069511413,0.5301787257194519,walking
1783090591331698200,3.9526982421875,0.984650504052639,1.5497227201208472,0.6189362004637717,0.0472315736114978,-0.1131293922662735,0.7165895700454712,walking
1783090591341742000,3.9627421875,1.188096562628448,1.8106655666366216,0.2307201422095298,-0.0667288154363632,0.1643901020288467,0.9042385816574096,walking
1783090591351787000,3.972787109375,1.335691993036121,1.8324381302446129,-0.3686854283541441,-0.1543481051921844,0.4453363716602325,1.0471043586730957,walking
1783090591371247000,3.9922470703125,1.230382775824517,0.7150991844717413,-0.6712965022981167,-0.1610013395547866,0.7221953272819519,1.0884674787521362,walking
1783090591381291300,4.002291259765625,0.986141473262757,0.1739199582315981,-0.2464221537321805,-0.0969501882791519,0.6953889727592468,1.0616252422332764,walking
1783090591391336200,4.012336181640625,0.6402006684191525,-0.3648685004144907,0.2057797622203827,-0.0043899277225136,0.5947704911231995,1.0069211721420288,walking
1783090591401380000,4.022380126953125,0.3784174255564808,-0.5418043358685448,0.6200777717143297,0.0838392674922943,0.4510612487792969,0.9523929357528688,walking
1783090591411425000,4.032425048828125,0.6665151132404804,-0.3326820948198437,0.9735773213744164,0.1374579071998596,0.2744571268558502,0.9227254390716552,walking
1783090591421469200,4.04246923828125,1.1466818715699016,-0.0464319346986711,0.9904045375347136,0.1420417428016662,0.1047480180859565,0.9156216979026794,walking
1783090591431514000,4.05251416015625,1.463813199906051,0.1620222343627363,0.5833411554694176,0.1007871329784393,-0.0143749509006738,0.932093620300293,walking
1783090591441558000,4.06255810546875,1.588496102890372,0.2856415267035365,-0.0186637839376926,0.0457640960812568,-0.0676344484090805,0.9727928042411804,walking
1783090591451603200,4.072603271484375,1.6342440008476375,0.3728898577740415,-0.5355266803711652,0.0104954186826944,-0.0783907324075698,1.0325912237167358,walking
1783090591461647000,4.082647216796875,1.6168265637092292,0.3803985529037192,-0.6568938829362392,-0.0092492569237947,-0.0940381437540054,1.0828192234039309,walking
1783090591471692000,4.092692138671875,1.4311968784615396,0.148911006518267,-0.5015075063914061,-0.0231286827474832,-0.1156869232654571,1.0943386554718018,walking
1783090591481736200,4.102736083984375,1.1946357551388442,-0.0851888047248125,-0.1499590907990932,-0.0306664928793907,-0.1504888534545898,1.078101634979248,walking
1783090591491781000,4.112781005859375,0.8213948554374277,-0.155957125637494,0.2105085443079471,-0.0248621329665184,-0.1801774948835373,1.050702452659607,walking
1783090591501825000,4.122824951171875,0.5393053221270442,-0.1744887710954993,0.5532569828510284,-0.0117529910057783,-0.2076621204614639,1.0225534439086914,walking
1783090591511870200,4.1328701171875,0.6317440979801118,0.0019633724948391,0.9211065449029208,-0.0025953045114874,-0.2511658072471618,1.006595015525818,walking
1783090591521914000,4.1429140625,0.7060220709815621,0.346813276829198,1.0794774902164936,-0.0112910578027367,-0.2984949648380279,1.0103620290756226,walking
1783090591531959000,4.152958984375,0.7413575882568955,0.4963726277209818,1.0261451284796,-0.0382431373000144,-0.318332701921463,1.019399642944336,walking
1783090591542003200,4.163003173828125,0.6621430356360971,0.5636132494315504,0.7446224352717399,-0.0696204975247383,-0.2816588282585144,1.0381911993026731,walking
1783090591552048000,4.173048095703125,0.5018099964693188,0.5231004756487906,0.3566518762111663,-0.0782947391271591,-0.2041756063699722,1.0589357614517212,walking
1783090591562092000,4.183092041015625,0.5435378451302647,0.4781929740384221,0.1315747083246707,-0.0630052611231803,-0.1248368322849273,1.0748199224472046,walking
1783090591572137200,4.19313720703125,0.7308888012126088,0.4850560647409409,0.049155952835083,-0.0544071234762668,-0.0676293596625328,1.0877954959869385,walking
1783090591582181000,4.20318115234375,0.7898078770406544,0.3464083492901176,-0.0817950706332922,-0.0680169388651847,-0.0106643419712781,1.091583251953125,walking
1783090591592226000,4.21322607421875,0.7971472800180316,0.0780805070895701,-0.1270861647337675,-0.0974294617772102,0.0596997402608394,1.0782644748687744,walking
1783090591602270200,4.223270263671875,0.6439255341611803,-0.1655886216074228,-0.1306838969647884,-0.1271471530199051,0.1486732959747314,1.0425560474395752,walking
1783090591612315100,4.233315185546875,0.4793051730640232,-0.4324051824621856,0.0258446353524923,-0.1408604234457016,0.2223941683769226,0.9812801480293274,walking
1783090591622359000,4.243359130859375,0.5752227309435606,-0.6478181576855481,0.2604489255189895,-0.1432838886976242,0.2448523342609405,0.8959655165672302,walking
1783090591632404000,4.253404052734375,0.6301654504865407,-0.754553462177515,0.4119458934098481,-0.1493161022663116,0.2342504113912582,0.7937451004981995,walking
1783090591642448100,4.2634482421875,0.7394352418921888,-0.8614668997153639,0.5608247877568007,-0.1660868227481842,0.2029832899570465,0.6840854287147522,walking
1783090591652493000,4.2734931640625,0.7124151330195367,-1.0286101303536443,0.4903694417834282,-0.1855083554983139,0.1742331981658935,0.5856548547744751,walking
1783090591662537200,4.283537109375,0.7026879581227898,-1.2613193274885417,0.2909644752919674,-0.1752187013626098,0.1434217542409896,0.5059128999710083,walking
1783090591672582100,4.29358203125,0.7562390771768986,-1.366419285863638,0.1224210955321788,-0.1344054937362671,0.1072875261306762,0.4387248456478119,walking
1783090591682626000,4.3036259765625,0.8199081240110099,-1.373088388364017,0.0532329930156469,-0.0950253456830978,0.0701478719711303,0.3971709907054901,walking
1783090591692671000,4.3136708984375,0.8081431596763432,-1.3247097035117446,0.0476239209622144,-0.075239285826683,0.044428177177906,0.3769560754299164,walking
1783090591702715100,4.323715087890625,0.8004162186861038,-1.2325773632593453,0.1422369721144437,-0.0711891576647758,0.0270089749246835,0.3720843493938446,walking
1783090591712760300,4.33376025390625,0.7690973897062242,-1.100513117852062,0.2326438037484884,-0.0658843144774437,0.0160604789853096,0.3778074979782104,walking
1783090591722804000,4.343803955078125,0.6605433453544974,-0.952952393431589,0.2231055755525827,-0.0486683100461959,0.0111677199602127,0.394955039024353,walking
1783090591733477000,4.35447705078125,0.6402329632535576,-0.8640786165837198,0.1895148561179638,-0.0209729857742786,0.0132812252268195,0.4116194248199463,walking
1783090591743522000,4.36452197265625,0.6770739166557789,-0.7110575078655034,0.1351882226467132,0.009160416200757,0.0165832787752151,0.4344102144241333,walking
1783090591753566000,4.37456591796875,0.8591372877240181,-0.6143850399654358,0.1332575468450784,0.0282493736594915,-0.0047140414826571,0.4547890722751617,walking
1783090591763611100,4.384611083984375,1.0752382452115417,-0.6322446679133922,0.1122685348302125,0.0190185904502868,-0.0459552221000194,0.4642446339130401,walking
1783090591773654800,4.39465478515625,1.1640922944456338,-0.7247424804773182,0.0664788435578346,-0.0135981636121869,-0.1026707738637924,0.473466694355011,walking
1783090591783699700,4.40469970703125,1.337439713486284,-0.8685295315779745,0.0648041883438825,-0.0531309247016906,-0.1921641677618026,0.4750334322452545,walking
1783090591793744000,4.414743896484375,1.4781551751218736,-1.0007483099598438,-0.2180617361664772,-0.0803366228938102,-0.2641223967075348,0.4728947877883911,walking
1783090591803788500,4.42478857421875,1.5448299796432257,-1.008825598757714,-0.5163192910760641,-0.0826708823442459,-0.3161675035953522,0.4720976948738098,walking
1783090591813832700,4.434832763671875,1.5846606163807213,-0.9127793729972092,-0.6741010383248329,-0.0620347075164318,-0.338784784078598,0.4739360809326172,walking
1783090591823878000,4.4448779296875,1.5031608754321932,-0.7706748681560158,-0.6830775409847497,-0.045061320066452,-0.321714699268341,0.4914501011371612,walking
1783090591833921800,4.454921875,1.151523612512648,-0.6638306964620947,-0.6890963628828525,-0.031060516834259,-0.2477654665708542,0.5244920253753662,walking
1783090591843966700,4.464966796875,0.8499874743238091,-0.5860257183782756,-0.6800181534141302,-0.0011265854118391,-0.172182559967041,0.556946337223053,walking
1783090591854011000,4.475010986328125,0.891744110687822,-0.4716095770601183,-0.7607593310803175,0.0460632219910621,-0.1292399913072586,0.5699094533920288,walking
1783090591864055600,4.4850556640625,1.0698704345680772,-0.491652028939873,-1.1125947469204664,0.0699611008167266,-0.1165202111005783,0.5376535058021545,walking
1783090591874099700,4.495099609375,1.236393414416164,-0.67542118101269,-1.540800870257616,0.0547303445637226,-0.0985090285539627,0.4737840592861175,walking
1783090591884145000,4.505144775390625,1.4215604505881667,-0.8456995678715408,-1.7989853579759596,0.0423413179814815,-0.0856992229819297,0.408931016921997,walking
1783090591894188500,4.5151884765625,1.5081700818963348,-1.0413869020793587,-1.8636562753289936,0.0538787022233009,-0.0983824282884597,0.3488751053810119,walking
1783090591904233700,4.525233642578125,1.536042862075567,-1.0601461822807787,-1.741214137008786,0.0810900852084159,-0.1436809301376342,0.2911883890628814,walking
1783090591914278000,4.53527783203125,1.5521302196539937,-0.767886771807447,-1.4753086996495723,0.1162490472197532,-0.188622698187828,0.2629752457141876,walking
1783090591924322800,4.54532275390625,1.5293457025244832,-0.3359966261953115,-1.1310685612440108,0.1462695300579071,-0.2223836034536361,0.2680272459983825,walking
1783090591934366700,4.55536669921875,1.3694208057671784,0.0637867549296468,-0.723318365958333,0.1633439511060714,-0.2451215237379074,0.2957572937011719,walking
1783090591944411600,4.56541162109375,1.149158929207921,0.2989062280766665,-0.3834679869443178,0.1853669583797454,-0.2590685188770294,0.3331778943538666,walking
1783090591954455800,4.575455810546875,0.9172913705289364,0.389791271681711,-0.0475450105071067,0.2022633403539657,-0.2698614299297333,0.3699829578399658,walking
1783090591964500700,4.585500732421875,0.6983775475777685,0.4197194500207901,0.250250187587738,0.2137820422649383,-0.2811779975891113,0.4125744104385376,walking
1783090591974544600,4.595544677734375,0.5473021660998463,0.4527987858671695,0.3907125512450933,0.2354629635810852,-0.2870512008666992,0.4644503891468048,walking
1783090591984589800,4.60558984375,0.5298816602215171,0.4261046210132539,0.4419166687816381,0.2825202345848083,-0.2878967523574829,0.5139774680137634,walking
1783090591994633700,4.6156337890625,0.6317078576229512,0.5188067239776254,0.4791057049691676,0.3441247940063476,-0.297035276889801,0.5630228519439697,walking
1783090592004678700,4.6256787109375,0.6296697759240866,0.8010973328180611,0.4852174658477306,0.4068249464035034,-0.2884188890457153,0.6331231594085693,walking
1783090592014722800,4.635722900390625,0.6365934377074242,1.1475590927958488,0.5160831442326307,0.4659014046192169,-0.2728212773799896,0.7326472997665405,walking
1783090592024767700,4.645767822265625,0.6528602435059845,1.457836609714478,0.6550374414145946,0.5257053375244141,-0.2735845446586609,0.8395226001739502,walking
1783090592034811600,4.655811767578125,0.6337484235398471,1.6877379828870296,0.9621236149460076,0.5462011694908142,-0.3061303794384002,0.9194836020469666,walking
1783090592044856800,4.66585693359375,0.5878051491409539,1.8961708899646996,1.389483350586891,0.5042235851287842,-0.4100772738456726,0.990050196647644,walking
1783090592054900700,4.675900634765625,0.3861658477261662,2.0225633733458817,1.7358464724957945,0.4514639377593994,-0.5772277116775513,1.0676493644714355,walking
1783090592064945700,4.685945556640625,0.0572309766106307,1.9612895510852335,1.934324387270212,0.4209747314453125,-0.7707010507583618,1.1288336515426636,walking
1783090592074989800,4.69598974609375,-0.3113765642017126,1.826314678928256,1.9616531237006187,0.4112600088119507,-0.9396181702613832,1.1657063961029053,walking
1783090592085034800,4.70603466796875,-0.6571295913882553,1.6131936140343546,1.7341729863256214,0.4076178967952728,-1.0258513689041138,1.1792027950286863,walking
1783090592095078700,4.71607861328125,-0.9306776524551212,1.374365276432037,1.2840695039570331,0.4082601070404053,-1.0063291788101196,1.1729159355163574,walking
1783090592105123800,4.726123779296875,-1.0351996648117898,1.147557777621597,0.5365437484592199,0.4193348586559295,-0.8768705725669861,1.1487783193588257,walking
1783090592115167700,4.736167724609375,-0.8999266864910721,0.842521595422551,-0.401492888456583,0.421564519405365,-0.62366783618927,1.1082507371902466,walking
1783090592125212700,4.746212646484375,-0.6702649672932922,0.5285348487224429,-1.2570236761212348,0.3802194893360138,-0.2646764516830444,1.0600615739822388,walking
1783090592135256800,4.7562568359375,-0.5516400491736829,0.2288061252817511,-1.991216487315297,0.3061979711055755,0.1326007843017578,1.0179650783538818,walking
1783090592145301800,4.7663017578125,-0.3264208424679934,-0.067094856564328,-2.620118785998225,0.2677781283855438,0.4766779839992523,0.979775607585907,walking
1783090592155345700,4.776345703125,-0.2510837158024311,-0.1594488036781549,-3.073664517775178,0.3061218857765198,0.7208855152130127,0.9514552354812622,walking
1783090592165390800,4.786390869140625,-0.5652342747621238,-0.3055371174585074,-3.2954385524630543,0.3628376126289367,0.916767418384552,0.9322197437286376,walking
1783090592175434800,4.796434814453125,-1.003941333847493,-0.6999024921227246,-3.089253716573119,0.3880679011344909,1.0434306859970093,0.9116718769073486,walking
1783090592185479700,4.806479736328125,-1.2918863151878115,-0.8864149515543133,-2.470189505815506,0.378382533788681,1.0927367210388184,0.8897548317909241,walking
1783090592195523800,4.81652392578125,-1.229147973332554,-0.8642975930966437,-1.6667378649562596,0.3545757532119751,1.0685499906539917,0.8831024169921875,walking
1783090592205568800,4.82656884765625,-0.9649657065041364,-0.6230461200006305,-0.8437129240989685,0.3367064893245697,1.016794204711914,0.8836286664009094,walking
1783090592215612700,4.83661279296875,-0.7022872683674096,-0.2290347464058548,-0.1955325089722871,0.3107958137989044,0.9555695652961732,0.905179500579834,walking
1783090592225657600,4.84665771484375,-0.3944334714643657,0.1079853045530617,0.3870721489161253,0.256766676902771,0.8601911067962646,0.9610984325408936,walking
1783090592235701800,4.85670166015625,-0.1453378607392311,0.388675309796445,0.8478028237611055,0.1981362402439117,0.718071460723877,1.0314381122589111,walking
1783090592245747000,4.866746826171875,0.0324915260210633,0.5961507700188086,1.2034873162448405,0.1630168706178665,0.5283311009407043,1.1024880409240725,walking
1783090592255790600,4.87679052734375,0.0184939803287386,0.7328421272374689,1.4588158300101757,0.1415975093841552,0.3035432994365692,1.158908128738403,walking
1783090592265835800,4.886835693359375,-0.090317545915395,0.6577453121338039,1.574656378108263,0.1109075099229812,0.0790169984102249,1.197803616523743,walking
1783090592275880000,4.8968798828125,-0.278159208124131,0.3021720614721998,1.47417531170547,0.0757936686277389,-0.0982591956853866,1.2031787633895874,walking
1783090592285924600,4.906924560546875,-0.4703109886169433,-0.0921312442738562,1.3484902459412813,0.0571313053369522,-0.2175709307193756,1.1693239212036133,walking
1783090592295968800,4.91696875,-0.5766724913604557,-0.3938165816750377,1.0526198784291745,0.0543118715286254,-0.2570897340774536,1.10984206199646,walking
1783090592306013700,4.927013671875,-0.6412566072128713,-0.5948192656867206,0.8988491203874349,0.0670993030071258,-0.2546790540218353,1.0361859798431396,walking
1783090592316057600,4.9370576171875,-0.5064762347146868,-0.8297712002471089,1.0904378601700069,0.0817035064101219,-0.2428341954946518,0.9522395133972168,walking
1783090592326102800,4.947102783203125,-0.5397587649829685,-1.0207836014464498,1.1045505566745997,0.0741822123527526,-0.2084575742483139,0.8654020428657532,walking
1783090592336147000,4.95714697265625,-0.7928736943520606,-0.9570832826912402,1.058612981364131,0.0626757144927978,-0.1449472606182098,0.8242087364196777,walking
1783090592346191600,4.967191650390625,-1.017565077791363,-0.657910658763349,1.1842542079865932,0.0267528612166643,-0.0898690819740295,0.808036744594574,walking
1783090592356235800,4.97723583984375,-0.7246101593345403,-0.7332314918812364,1.5893798999875783,-0.0392527803778648,-0.1088701114058494,0.7443782091140747,walking
1783090592366280700,4.98728076171875,-0.445716791716963,-0.9082202483881264,1.7739871103197336,-0.1272865086793899,-0.1992170512676239,0.6747559905052185,walking
1783090592376324600,4.99732470703125,0.1705729858912527,-1.201261749149859,1.7596657395005224,-0.1777181774377823,-0.3228547275066376,0.6015279293060303,walking
1783090592386369800,5.007369873046875,0.6684994189254939,-1.462263047854602,1.427633925282955,-0.1644210070371627,-0.4568849503993988,0.5314279794692993,walking
1783090592396413700,5.01741357421875,0.922976430428028,-1.4880074377030132,0.8280594278931617,-0.1023186966776847,-0.539153516292572,0.4990781247615814,walking
1783090592406459000,5.027458984375,1.1727779974654315,-1.500902867372334,0.2280295879513025,0.0296965930610895,-0.5583764910697937,0.4859116971492767,walking
1783090592416502800,5.037502685546875,0.8605882171846926,-1.6989669406488537,-0.2486824998795986,0.160636767745018,-0.4980929493904114,0.4501625001430511,walking
1783090592426547700,5.047547607421875,0.4397364021331071,-2.097576382623613,-0.2512608259350061,0.2344228476285934,-0.4174060523509979,0.4003898799419403,walking
1783090592436591600,5.057591552734375,0.3626996319428086,-2.096696531049162,0.0318143574118614,0.2499810010194778,-0.3625332415103912,0.3831431865692138,walking
1783090592446636800,5.06763671875,0.2268757417410612,-1.748349687977135,0.0961357306748628,0.2344209551811218,-0.3392473757266998,0.4237276315689087,walking
1783090592456680700,5.0776806640625,0.1613409010350704,-1.5734674605846404,-0.0447416435241699,0.2317257076501846,-0.3212468922138214,0.4677848815917969,walking
1783090592466726000,5.087725830078125,0.0858037217527628,-1.59162417178303,-0.2523047820299863,0.2645875215530395,-0.2988452017307281,0.5073866248130798,walking
1783090592476769800,5.097769775390625,0.0780396636225283,-1.5307880102872848,-0.4248550593435764,0.3061096668243408,-0.3203826248645782,0.5655240416526794,walking
1783090592486814700,5.107814697265625,0.1567690630748867,-1.4537985863700509,-0.5629921949237585,0.327725738286972,-0.3337743282318115,0.6070879697799683,walking
1783090592496859000,5.11785888671875,0.2522106740057468,-1.0145070053949952,-0.8121078255236148,0.335022509098053,-0.3064512312412262,0.7102101445198059,walking
1783090592506903600,5.127903564453125,0.2800419531308114,-0.4782059065852314,-0.9466600883543492,0.3375887274742126,-0.3201811611652374,0.8733713626861572,walking
1783090592516948700,5.13794873046875,0.2680630537845194,-0.7929046009469777,-0.7273223409026861,0.3536102473735809,-0.4139960706233978,1.0017776489257812,walking
1783090592526993000,5.147992919921875,0.2538353525981306,-1.328948802386224,-0.4168003477036953,0.3461645841598511,-0.5829757452011108,1.057781219482422,walking
1783090592537037800,5.158037841796875,0.13791253304407,-1.7894427458658813,-0.3343243090689182,0.3146311044692993,-0.7565681338310242,1.0563719272613523,walking
1783090592547081700,5.168081787109375,-0.4786604454196989,-2.02648799944371,-0.859314397856593,0.3320244550704956,-0.7735926508903503,1.0353013277053833,walking
1783090592557126000,5.1781259765625,-1.6775703707464038,-1.798608779748529,-1.9428858793884511,0.4267566800117492,-0.5978154540061951,1.056601881980896,walking
1783090592567170800,5.1881708984375,-1.8584084378033876,-1.1248103776320817,-2.3846166702091693,0.5233071446418762,-0.3920865654945373,1.0931761264801023,walking
1783090592577215700,5.1982158203125,-0.8566498548224568,-0.3240921803247183,-2.0703110668182374,0.4791280627250671,-0.2441230118274688,1.086482286453247,walking
1783090592587259600,5.208259765625,0.5564167620562017,0.5378569134170189,-1.7968974457859992,0.3134733140468597,-0.1703089773654937,1.0727955102920532,walking
1783090592597304800,5.218304931640625,1.4498296827390789,1.2681840986914932,-1.4908739330500362,0.116118386387825,-0.1720014363527298,1.0957592725753784,walking
1783090592607348700,5.2283486328125,1.2170032159000634,1.0661820283789187,-1.1632628578841686,-0.0087401960045099,-0.191282719373703,1.0882035493850708,walking
1783090592617393700,5.2383935546875,-0.1160663196779787,0.4318473293837159,-1.0873106680601834,-0.0060812062583863,-0.1038598045706749,1.0766171216964722,walking
1783090592627437800,5.248437744140625,-1.2718211400195956,0.3376181629825383,-1.331213532447815,0.0852769389748573,0.0625336989760398,1.098440647125244,walking
1783090592637482800,5.258482666015625,-0.9382700072802602,0.302874620250985,-1.1935136192411184,0.2115066349506378,0.1701670885086059,1.0666671991348269,walking
1783090592647526700,5.268526611328125,-0.3035705666258931,0.3661173314318061,-1.0982780522763729,0.2890783846378326,0.2526609003543854,0.9935291409492492,walking
1783090592657571800,5.27857177734375,-0.5229482076965272,0.567010892513208,-1.4511989252656698,0.2913168966770172,0.3939502239227295,0.9613181352615356,walking
1783090592667615700,5.28861572265625,-0.2703400588057935,0.5955450957432389,-1.299099899828434,0.2777369022369385,0.4965002834796905,0.950139820575714,walking
1783090592677660700,5.29866064453125,0.4215326369225978,0.6160327341072261,-0.6896247706711292,0.2780201435089111,0.4915408492088318,0.9022274613380432,walking
1783090592687704800,5.308704833984375,1.0724302020534873,0.5974865121345967,-0.3509212236046791,0.2921197116374969,0.4546086490154266,0.820427656173706,walking
1783090592697749800,5.318749755859375,0.8573743697047234,0.6396845355905592,-0.4630775302320719,0.2934379875659942,0.4850477874279022,0.7397024631500244,walking
1783090592707793700,5.328793701171875,0.4491594795167445,0.8585225898917764,-0.2814338458806276,0.2789357304573059,0.5083784461021423,0.7163435816764832,walking
1783090592717838800,5.3388388671875,0.7782765753313898,0.975512527220696,0.5803881508827209,0.2546834647655487,0.415798544883728,0.6937234997749329,walking
1783090592727882500,5.348882568359375,1.4457126028090714,0.9619384676374496,1.2835311592966316,0.2134774178266525,0.2413803786039352,0.6518604755401611,walking
1783090592737927700,5.358927734375,2.033148480246216,0.9823615163326264,1.5213362913310526,0.1435496062040329,0.0757376551628112,0.6296629309654236,walking
1783090592747971800,5.368971923828125,2.602893802691996,0.9617185412764548,1.7433324443370102,0.0383608639240264,-0.072781778872013,0.646224856376648,walking
1783090592758016800,5.379016845703125,3.052123132574558,1.056636932050809,1.7000263865739107,-0.1011633351445198,-0.17070172727108,0.7128508687019348,walking
1783090592768060700,5.389060791015625,3.0172318519353865,0.8363258825875818,1.1034499019563198,-0.2255494743585586,-0.1311718821525573,0.7787675261497498,walking
1783090592778105900,5.39910595703125,3.1193299981459974,0.7478643398024142,0.6639040539592505,-0.2603748738765716,-0.0478347577154636,0.8561127185821533,walking
1783090592788149800,5.409149658203125,2.924835307788849,1.034980322972685,0.1223532909929752,-0.2463908940553665,0.1114395782351493,0.944379985332489,walking
1783090592798195000,5.41919482421875,2.3636142141908407,0.9707567109957336,-0.3768342480182647,-0.2387088239192962,0.2747474312782287,1.0270885229110718,walking
1783090592808239000,5.429239013671875,1.9185715223431583,0.6989901265181601,-0.0369826999604702,-0.2267917096614837,0.306218534708023,1.0914521217346191,walking
1783090592818283800,5.43928369140625,1.7190287548162042,0.3651742784280329,0.6821884831905365,-0.1962823569774627,0.1801297962665558,1.105985403060913,walking
1783090592828328000,5.449327880859375,1.4674036256134508,-0.0318576120316982,1.201160919123888,-0.1508664190769195,-0.0179737024009227,1.0588303804397583,walking
1783090592838372900,5.459372802734375,1.101726877555996,-0.3066640756618231,1.5640262630224226,-0.1048081368207931,-0.2218395620584488,1.0032777786254885,walking
1783090592848416800,5.469416748046875,0.6838179840885102,-0.4048602459978312,1.8235978211849928,-0.075524017214775,-0.3747816979885101,0.9909332394599916,walking
1783090592858462000,5.4794619140625,0.5005468446657061,-0.4138469047255814,2.167819839411974,-0.0725085735321044,-0.5274313688278198,0.994637668132782,walking
1783090592868505900,5.489505859375,0.5681755889110267,-0.2010067025996744,2.553784903869033,-0.0810730308294296,-0.6866912841796875,1.0058434009552002,walking
1783090592878550800,5.49955078125,0.5225460566364228,-0.029192776736617,2.6532237677425146,-0.0956486836075782,-0.8690128326416016,1.015395164489746,walking
1783090592888595000,5.509594970703125,0.7632546550273894,0.1604468748047947,2.539879128113389,-0.1074550077319145,-1.0607694387435913,1.0510153770446775,walking
1783090592898640000,5.519639892578125,1.25257970232442,0.5699683175466954,1.7563111683756112,-0.1143456771969795,-1.1746399402618408,1.1422078609466553,walking
1783090592908683800,5.529683837890625,1.7848036878883835,1.0347258367549628,0.1265858139961957,-0.1281171441078186,-1.0843284130096436,1.2713298797607422,walking
1783090592918728700,5.539728759765625,2.466194883221388,1.4917036618724464,-1.8517209228634832,-0.115066111087799,-0.7850223183631897,1.4398126602172852,walking
1783090592928772900,5.54977294921875,3.0394287784352896,1.8305507090628144,-3.463151326617598,-0.0539729259908199,-0.3923874497413635,1.6107679605484009,walking
1783090592938818000,5.559818115234375,2.8797248309522865,1.4278043134137988,-3.85123762101233,0.0197928957641124,-0.0649221315979957,1.713122844696045,walking
1783090592948862000,5.569862060546875,2.130601869390905,0.6146387224655598,-2.749936421522498,0.0483656860888004,0.1538413763046264,1.7570165395736694,walking
1783090592958907000,5.579906982421875,1.3551403514802456,-0.0338808614876121,-1.1530775639563795,0.0117776300758123,0.236519768834114,1.7549686431884766,walking
1783090592968950800,5.58995068359375,0.8859536907181144,-0.292802577439323,-0.1163742165833711,-0.0421636328101158,0.2455777078866958,1.701744556427002,walking
1783090592978995700,5.59999560546875,0.5808487541317939,-0.1647114003814756,0.2828507269412278,-0.0924844443798065,0.217755988240242,1.6186643838882446,walking
1783090592989039900,5.610039794921875,0.6152699330411852,-0.1093489941217005,0.5561380912452936,-0.1288408488035202,0.145072728395462,1.5414129495620728,walking
1783090592999085000,5.6200849609375,0.7418753285206854,-0.2756121539898216,0.672727996405959,-0.119046464562416,-0.0075578908436,1.4737437963485718,walking
1783090593009128700,5.630128662109375,0.7193545768938958,-0.5853269224591553,0.6757558197945356,-0.0640154331922531,-0.2102699875831604,1.4086321592330933,walking
1783090593019174000,5.640173828125,0.7193703589849174,-0.7312501818709075,0.6208610310465097,0.0126863252371549,-0.4244502782821655,1.352729082107544,walking
1783090593029218000,5.650218017578125,0.739159785951674,-0.8745924848787486,0.5641337661743163,0.0868119522929191,-0.5968707203865051,1.2727618217468262,walking
1783090593039262700,5.6602626953125,0.6446332440391183,-1.0269064682409166,0.366102426123619,0.1437122821807861,-0.701454758644104,1.1950457096099854,walking
1783090593049307000,5.670306884765625,0.7273012981146574,-1.0931921273142098,0.2222562652468681,0.1756798028945922,-0.7649295926094055,1.1475147008895874,walking
1783090593059351800,5.680351806640625,0.8763803912088275,-1.1018534265451132,0.1264461132645607,0.1755974292755127,-0.7844393253326416,1.1206109523773191,walking
1783090593069395700,5.690395751953125,0.9776038004115224,-0.845675748604536,0.0772808080792427,0.124173916876316,-0.7652696371078491,1.1265588998794556,walking
1783090593079441000,5.70044091796875,1.1606298790320753,-0.3936638022661209,0.04647591997087,0.0291409511119127,-0.7223389148712158,1.1769927740097046,walking
1783090593089485000,5.710485107421875,1.410527161528915,-0.0553410712108016,0.0352092605471611,-0.0726945996284484,-0.6712973117828369,1.2540558576583862,walking
1783090593099530000,5.720530029296875,1.626525097033381,-0.1123911382965743,0.013871873486042,-0.149251639842987,-0.6167500615119934,1.303657054901123,walking
1783090593109574000,5.730573974609375,1.5448153665959834,-0.4707148932427167,-0.1628553972512483,-0.179458811879158,-0.5470884442329407,1.3091977834701538,walking
1783090593119618800,5.740618896484375,1.3071356145069002,-0.9006583617664873,-0.2669593303263187,-0.1682422310113906,-0.4447233378887176,1.2874881029129028,walking
1783090593129662700,5.750662841796875,0.9728627433642744,-1.1620432529613376,-0.3254150264263153,-0.1293078809976577,-0.3092666864395141,1.2566351890563965,walking
1783090593139708000,5.7607080078125,0.8577543089330196,-1.0894622931361198,-0.3179232093662023,-0.0552849769592285,-0.1583244800567627,1.2412134408950806,walking
1783090593149751800,5.770751708984375,0.6663447251096367,-0.8127914238736033,-0.4746656766951084,0.0390774756669998,-0.0053543639369308,1.2261697053909302,walking
1783090593159797000,5.780796875,0.5252458171144128,-0.6090767774894833,-0.5536369220793247,0.1070061549544334,0.121296688914299,1.2174105644226074,walking
1783090593169841000,5.7908408203125,0.4881041271999478,-0.6698556558400393,-0.4406219527959823,0.1495099365711212,0.1824385970830917,1.1851587295532229,walking
1783090593179885800,5.8008857421875,0.4839747723102569,-0.8917631076492368,-0.4101648552119731,0.1717720925807953,0.1816702634096145,1.1110721826553345,walking
1783090593189930000,5.810929931640625,0.5302526854909956,-1.1722184638865292,-0.4371680129498243,0.1779370456933975,0.1112014204263687,1.003515362739563,walking
1783090593199974700,5.820974609375,0.5469399086587131,-1.3303095693454146,-0.4669786293238401,0.1769282519817352,-0.0140240285545587,0.8868967294692993,walking
1783090593210018800,5.831018798828125,0.5419179888434708,-1.1453398093111813,-0.5879372510880232,0.1994745731353759,-0.1516713798046112,0.8122051954269409,walking
1783090593220064000,5.84106396484375,0.4811461247555911,-0.7631719451799989,-0.818146521165967,0.2421676963567733,-0.2436241209506988,0.7925165295600891,walking
1783090593230108000,5.85110791015625,0.4701593051865697,-0.3852021172605455,-1.2121230426430702,0.2806160151958465,-0.2626356184482574,0.7974790334701538,walking
1783090593240152800,5.86115283203125,0.7973474787652493,-0.0337729441337287,-1.4893857403188944,0.2735104560852051,-0.2302966713905334,0.795393168926239,walking
1783090593250197000,5.871197021484375,1.3406097218245268,0.0513056782148778,-1.6287275755137205,0.205077052116394,-0.1833075881004333,0.7625468373298645,walking
1783090593260242000,5.881241943359375,1.781454523590952,0.0502215362399816,-1.7664818492561578,0.130211517214775,-0.1125224977731704,0.7311336398124695,walking
1783090593270285800,5.891285888671875,2.0499702895790337,0.1450147662647068,-1.9524720383793115,0.0985606387257576,-0.0075055412016808,0.733254075050354,walking
1783090593280331000,5.9013310546875,2.131850262016803,0.2014545924976468,-2.0116846903264523,0.1112463101744651,0.1229444295167923,0.7515560388565063,walking
1783090593290374700,5.911374755859375,2.056661311650276,0.2628114168666303,-1.8652905985325576,0.1353122293949127,0.2509146332740783,0.7772534489631653,walking
1783090593300419800,5.921419921875,1.8004130526915192,0.4139823676735162,-1.566941858208179,0.1352025419473648,0.3603406548500061,0.8183931708335876,walking
1783090593310464000,5.931464111328125,1.529754283325374,0.4983680393218994,-1.1650737066984176,0.1225032731890678,0.4375811219215393,0.857807993888855,walking
1783090593320509000,5.941509033203125,1.2192565477848052,0.5020091723032295,-0.5664361978977919,0.1427520215511322,0.4823974668979645,0.8690164685249329,walking
1783090593330552800,5.951552734375,0.7966377230606972,0.4600112745292484,0.1376508133679628,0.1764183789491653,0.4656912088394165,0.8495615124702454,walking
1783090593340597800,5.96159765625,0.4957001352868974,0.4454788913078606,0.7739093200325965,0.2016187608242035,0.3771214783191681,0.833828330039978,walking
1783090593350642000,5.971641845703125,0.3684370065510273,0.548791966266185,1.1446961045801638,0.2279036343097686,0.2145067155361175,0.8422726392745972,walking
1783090593360686800,5.981686767578125,0.3290072056993842,0.5706298501953482,1.2255109320044515,0.2444467842578888,0.0057747834362089,0.8660300374031067,walking
1783090593370730800,5.991730712890625,0.3575855037994682,0.4745959724597632,1.0980232007324695,0.2671782076358795,-0.2143900841474533,0.8795964121818542,walking
1783090593380776000,6.00177587890625,0.4927192197799682,0.2870706827238202,1.000173067355156,0.3153644204139709,-0.431281715631485,0.8875625133514404,walking
1783090593390819800,6.01181982421875,0.580658492256701,0.0732557903468608,0.9713058693110942,0.3675242960453033,-0.6206785440444946,0.8865736722946167,walking
1783090593400864800,6.02186474609375,0.6670682170785963,-0.1605181864753365,1.0041367102891203,0.395637035369873,-0.7633943557739258,0.8844406604766846,walking
1783090593410909000,6.031908935546875,0.7801072978898882,-0.2596083830416202,1.1257272002160548,0.4147252440452575,-0.8558886051177979,0.8806608319282532,walking
1783090593420953900,6.041953857421875,0.9604819852188228,-0.1226134032338857,1.310710842645168,0.4337402284145355,-0.925433337688446,0.8817721009254456,walking
1783090593430997800,6.051997802734375,1.1289442625664174,0.2707400179088116,1.5291630394339562,0.460112452507019,-0.979386031627655,0.9171399474143982,walking
1783090593441043000,6.06204296875,1.1363012012004852,0.6783310771100223,1.7461071697473525,0.4915483891963959,-1.0153381824493408,0.981199026107788,walking
1783090593451086800,6.0720869140625,1.0621613214954733,0.9397114382602274,1.8142378721654413,0.5263564586639404,-1.0319069623947144,1.0662832260131836,walking
1783090593461131800,6.0821318359375,1.0030006919965146,0.9972595179960132,1.7817443003177642,0.572739839553833,-1.0226584672927856,1.143229603767395,walking
1783090593471176000,6.092176025390625,0.8935030831843614,0.9511258355915546,1.7072557533055543,0.6111825704574585,-0.9890528321266174,1.199708342552185,walking
1783090593481220900,6.102220947265625,0.748415690074861,0.8624414438359439,1.511779358434677,0.6305354237556458,-0.912863552570343,1.2305641174316406,walking
1783090593491264800,6.1122646484375,0.5975897533133626,0.7266105393715202,1.073560959649086,0.6372026205062866,-0.7928721308708191,1.2434005737304688,walking
1783090593501310000,6.12231005859375,0.3568298631265759,0.677107234403491,0.5756085153907537,0.6363281011581421,-0.63832688331604,1.263493537902832,walking
1783090593511353900,6.132353759765625,0.0260097627863287,0.6622941345445811,-0.0707622199654579,0.6066287755966187,-0.426285445690155,1.2843995094299316,walking
1783090593521398800,6.142398681640625,-0.4453253081813454,0.4499215499304235,-0.8918500552803278,0.5403412580490112,-0.1711685061454773,1.2877925634384155,walking
1783090593531443000,6.15244287109375,-0.730895815475285,0.0925870982825756,-1.7850147002905603,0.4498606026172638,0.1151149198412895,1.265575647354126,walking
1783090593541487900,6.16248779296875,-0.917403598731756,-0.2643963479705155,-2.8831840314954515,0.3717342913150787,0.4615055918693542,1.2238829135894775,walking
1783090593551531800,6.17253173828125,-0.9919774859398602,-0.4169495469160377,-3.780167358011007,0.3208660781383514,0.7999353408813477,1.1952552795410156,walking
1783090593561577000,6.182576904296875,-0.8130769628167152,-0.3632714404813945,-4.105161528676748,0.3046316802501678,1.0265004634857178,1.194459319114685,walking
1783090593571620900,6.192620849609375,-0.5948118130326271,-0.3330275472566485,-3.854013515466451,0.312464565038681,1.1255022287368774,1.194157600402832,walking
1783090593581665800,6.202665771484375,-0.3136388100452721,-0.2826161875329911,-2.9227672693431375,0.3245386481285095,1.0839989185333252,1.204741358757019,walking
1783090593591710000,6.2127099609375,-0.1405045953638851,-0.1435294961430132,-1.6546096202671527,0.3335555791854858,0.926085650920868,1.2447092533111572,walking
1783090593601755000,6.2227548828125,-0.1247476387836039,0.0914152780242264,-0.5553595080882311,0.3572784662246704,0.7257393002510071,1.3443260192871094,walking
1783090593611798800,6.232798828125,-0.1067797281555831,0.4404290605723858,0.2031342161476612,0.4045682251453399,0.5213483572006226,1.5000455379486084,walking
1783090593621843700,6.24284375,0.0202262109488248,0.6312133521042764,0.5665507641881704,0.4353716373443603,0.3176322281360626,1.6492842435836792,walking
1783090593631888000,6.252887939453125,0.2809460623636841,0.6299655440002679,0.753939714193344,0.4176070094108581,0.1195172891020774,1.762183427810669,walking
1783090593641933000,6.26293310546875,0.672350541395694,0.6450600911490619,0.9323726198047398,0.3534896075725555,-0.1327068507671356,1.879923701286316,walking
1783090593651976700,6.272976806640625,0.7902787094227969,0.5448192632429302,0.9198428085774184,0.2759796380996704,-0.3909469246864319,1.9681928157806396,walking
1783090593662022000,6.28302197265625,0.5823031907238065,0.3201196964971721,0.7845417732059955,0.213942140340805,-0.5932793021202087,1.9877002239227295,walking
1783090593672066000,6.293066162109375,0.3149861330009996,0.0099557229556143,0.5452145461708306,0.193505048751831,-0.73521488904953,1.9447394609451296,walking
1783090593682110700,6.30311083984375,0.1003656233295798,-0.1484868262894451,0.2459241410821676,0.2460353225469589,-0.7869831919670105,1.8938826322555544,walking
1783090593692155000,6.31315478515625,-0.1368777831688523,-0.2442955169670283,-0.1675765805542469,0.3228326439857483,-0.7852870225906372,1.829787254333496,walking
1783090593702199800,6.32319970703125,-0.216958889491111,-0.4552227250784635,-0.4650608130037784,0.3876313269138336,-0.7492344379425049,1.7407655715942385,walking
1783090593712243700,6.33324365234375,-0.2426458500638604,-0.5907223517619073,-0.6917343101710081,0.4266487658023834,-0.6384708881378174,1.645369291305542,walking
1783090593722289000,6.343288818359375,-0.085340780416131,-0.5743244669295847,-0.679438307699561,0.4420320987701416,-0.5011349320411682,1.5811554193496704,walking
1783090593732333000,6.3533330078125,0.132301561294496,-0.5330984303109347,-0.4747212062746286,0.4373688995838165,-0.3829113245010376,1.534940242767334,walking
1783090593742377700,6.363377685546875,0.2947146216057241,-0.5572621268391609,-0.1732318298369645,0.4228188097476959,-0.2998984456062317,1.4829078912734983,walking
1783090593752422000,6.373421875,0.3928631534077227,-0.6398270128011703,0.1687812801688909,0.4030823707580566,-0.2608839273452759,1.4383535385131836,walking
1783090593762466800,6.383466796875,0.3544632801257074,-0.7072898989602923,0.5160644395321607,0.3595836460590362,-0.2661209404468536,1.4034243822097778,walking
1783090593772510700,6.3935107421875,0.2830123472437262,-0.8734681570239364,0.8656137902617455,0.3034721612930298,-0.3041698038578033,1.3695249557495115,walking
1783090593782556400,6.403556396484375,0.2510600426658987,-1.0253528090581296,1.0539654478192328,0.2368031293153762,-0.3947007060050964,1.327556610107422,walking
1783090593792600000,6.41360009765625,0.5939179329328239,-0.94617376614213,1.004247769448161,0.1998211443424224,-0.5365366339683533,1.3073810338974,walking
1783090593802645200,6.423645263671875,1.4178738710299132,-0.2896940169647335,0.6493687481284142,0.2010363042354583,-0.6800779700279236,1.3670917749404907,walking
1783090593812689400,6.433689453125,2.436209494802356,0.3959261942401528,0.0888175166159868,0.2100923806428909,-0.7067891955375671,1.4424655437469482,walking
1783090593822734000,6.443734130859375,2.6824969162389634,0.1111475679762661,-0.4497071765273809,0.2202205210924148,-0.6096176505088806,1.4778761863708496,walking
1783090593832778200,6.4537783203125,2.417516777031123,-0.1728326013863086,-0.5952250700086354,0.2440579384565353,-0.4564017355442047,1.535757303237915,walking
1783090593842823200,6.4638232421875,2.3717685868129132,-0.1711610149122774,-0.2569599143594503,0.3269103467464447,-0.347790002822876,1.623900055885315,walking
1783090593852867000,6.4738671875,1.9873028210029005,-0.411944432105124,0.2789765158563852,0.4419440031051636,-0.3105262517929077,1.6642584800720217,walking
1783090593862912300,6.483912353515625,1.4004653478503226,-1.0393535696208476,0.7356313195645808,0.5223559737205505,-0.3375230133533478,1.608916997909546,walking
1783090593872956200,6.4939560546875,1.0250745766386389,-1.6099899956874548,1.1132722077906132,0.5502211451530457,-0.453657329082489,1.518612504005432,walking
1783090593883001000,6.5040009765625,1.0253015172623097,-1.6828534257158636,1.1936135724842547,0.5228599309921265,-0.6096991300582886,1.4326541423797607,walking
1783090593893045200,6.514045166015625,1.1383353373765943,-1.474790082602948,0.9347738357275724,0.4669782817363739,-0.733329176902771,1.3589317798614502,walking
1783090593903090200,6.524090087890625,1.246670332150161,-1.1724753612570464,0.4118582151263952,0.4116087257862091,-0.7845393419265747,1.2981305122375488,walking
1783090593913134000,6.534134033203125,1.2117980484724045,-0.7326045190893113,-0.2442740357875824,0.3691483438014984,-0.7448417544364929,1.277436137199402,walking
1783090593923179300,6.54417919921875,1.2318468570277097,-0.1103342057667672,-0.7813193040281534,0.3553997278213501,-0.6616044044494629,1.2921985387802124,walking
1783090593933223200,6.55422314453125,1.5121177966088055,0.5212583549134433,-0.8318027060747146,0.3574740588665008,-0.6159002780914307,1.3555539846420288,walking
1783090593943268400,6.564268310546875,1.583391765488684,1.1425485711574557,-0.9384282665818928,0.3473548889160156,-0.5577273964881897,1.4725788831710815,walking
1783090593953312300,6.574312255859375,1.2440101730301976,1.5894724005766212,-1.277269760814309,0.3174108564853668,-0.4022320210933685,1.6365063190460205,walking
1783090593963357200,6.584357177734375,0.7551020359709858,1.6206196723818778,-1.7264724949508905,0.294438362121582,-0.1279472261667251,1.758784532546997,walking
1783090593973401300,6.5944013671875,0.4062593722060322,1.203420973010361,-1.8758850577831268,0.3025652766227722,0.1920550018548965,1.815840721130371,walking
1783090593983446000,6.604446044921875,0.004203589169681,0.9658980189181864,-1.9813217007666823,0.3185333013534546,0.5553934574127197,1.8784708976745603,walking
1783090593993490200,6.614490234375,-0.2216746659666299,0.8933654282793402,-1.839462329792976,0.3411973416805267,0.8889658451080322,1.9316967725753784,walking
1783090594003535400,6.624535400390625,0.2241815342210233,0.9025538201242684,-1.2470762826025483,0.3726604282855987,1.0715224742889404,1.9279634952545168,walking
1783090594013579000,6.6345791015625,0.9642283321402968,0.7666117103703319,-0.3268956203728914,0.3737190365791321,1.0942847728729248,1.8605763912200928,walking
1783090594023624200,6.644624267578125,0.6859161254115402,0.2738978974178433,0.1015115784943103,0.3024832308292389,1.071289300918579,1.7147512435913086,walking
1783090594033668400,6.65466845703125,0.9473984856314956,-0.3247729291304946,0.4939315181791782,0.2319123744964599,0.9632027745246888,1.598834991455078,walking
1783090594043713000,6.664713134765625,1.2076098030023277,-0.336101109483093,0.5214163219541311,0.1985656321048736,0.8686227798461914,1.4974229335784912,walking
1783090594053757200,6.674757080078125,1.0346147045306862,-0.4192898264318704,0.2537146488279104,0.1790603697299957,0.8001793026924133,1.392064332962036,walking
1783090594063802400,6.68480224609375,1.2095697048984466,-0.4054883878335356,0.5841653313338756,0.1526294499635696,0.6942610144615173,1.318819522857666,walking
1783090594073846000,6.694845947265625,1.070396065877378,-0.1455843828462064,0.8847177191823721,0.1082028523087501,0.6006170511245728,1.270221710205078,walking
1783090594083891200,6.70489111328125,0.4072067360587418,0.1209121522739529,0.6840028391361236,0.035464558750391,0.5660432577133179,1.258244276046753,walking
1783090594093935400,6.714935302734375,-0.0543744181357324,0.4174493131317198,0.4015957643091678,-0.033796802163124,0.5026435256004333,1.299166917800903,walking
1783090594103980300,6.724980224609375,0.3361376421011984,0.8539837043531239,0.4849871642231941,-0.040263932198286,0.3534602522850036,1.3696010112762451,walking
1783090594114024200,6.735024169921875,0.628527620151639,1.08528895297423,0.4606365668207406,0.0029884653631597,0.1854113340377807,1.4105284214019775,walking
1783090594124069000,6.745069091796875,0.7091475095257163,0.7996864431068301,0.3730611592203378,0.0471610240638256,0.0645795539021492,1.4154728651046753,walking
1783090594134113300,6.75511328125,0.6370975878372788,0.4149455136172473,0.3491799328953027,0.0643488019704818,-0.0282129663974046,1.3982547521591189,walking
1783090594144158200,6.765158203125,0.8698774390555918,0.1429211549863219,0.5760252794981002,0.061754360795021,-0.1323168128728866,1.3707101345062256,walking
1783090594154202000,6.7752021484375,1.1257942741028963,-0.0220386671982705,0.6575754354596137,0.0377741940319538,-0.2265575677156448,1.3210294246673584,walking
1783090594164247300,6.785247314453125,1.2057603757433593,-0.2329538926109671,0.4909089554876089,-0.0244206190109252,-0.2639565467834472,1.2826805114746094,walking
1783090594174291200,6.795291259765625,1.1759443525418638,-0.3700929570645093,0.2365969252884388,-0.1053362414240837,-0.276976466178894,1.275679349899292,walking
1783090594184336100,6.805336181640625,1.3164824117839335,-0.4432284820325672,0.1052969422519207,-0.1631619930267334,-0.3112892806529999,1.281240463256836,walking
1783090594194380300,6.81538037109375,1.3579811278641225,-0.4669456038370728,-0.1746598168134689,-0.172544315457344,-0.3433984816074371,1.27190899848938,walking
1783090594204425200,6.82542529296875,1.1645077433787283,-0.5150710445806383,-0.4209071985006332,-0.1411544978618621,-0.3987202644348144,1.2576032876968384,walking
1783090594214469000,6.83546923828125,1.1803671374201774,-0.4756901974372565,-0.3688204529106617,-0.0702153593301773,-0.4937309324741363,1.2476571798324585,walking
1783090594224514300,6.845514404296875,1.3374353295721113,-0.4276566727608442,-0.1702086826235055,-0.0074035008437931,-0.59475177526474,1.2254177331924438,walking
1783090594234558200,6.85555810546875,1.4479044137649235,-0.4844907590083777,-0.1556225233882665,0.0312695950269699,-0.6302154660224915,1.1993106603622437,walking
1783090594244603100,6.86560302734375,1.4741640596590937,-0.5856665296770632,-0.1616857689499855,0.0414688736200332,-0.6175987124443054,1.1576688289642334,walking
1783090594254647300,6.875647216796875,1.356152158871293,-0.6293062033087015,-0.0658463908731937,0.0313635095953941,-0.5758243203163147,1.121330976486206,walking
1783090594264692200,6.885692138671875,1.273840809278935,-0.6422817124769091,0.1211281331121921,6.949994713068008e-07,-0.5232202410697937,1.082268238067627,walking
1783090594274736000,6.895736083984375,1.2806798615187405,-0.6788846193395555,0.2977636339128017,-0.0580386370420455,-0.4916045069694519,1.0342618227005005,walking
1783090594284781300,6.90578125,1.1790952177882197,-0.7411695183388889,0.2723176424890756,-0.136414423584938,-0.4376895427703857,0.983567237854004,walking
1783090594294825200,6.9158251953125,1.078399777982384,-0.8950912291586398,0.1368804135173559,-0.201960951089859,-0.3568479418754577,0.92080557346344,walking
1783090594304870100,6.9258701171875,1.05028734382838,-1.1213200512982904,0.09455576800704,-0.2356457263231277,-0.2753929495811462,0.8493340015411377,walking
1783090594314914300,6.935914306640625,0.867086931554228,-1.1873695635281505,0.1919528969198465,-0.2136546671390533,-0.2313597202301025,0.7807730436325073,walking
1783090594324959200,6.945959228515625,1.177404634352773,-1.2443182160660624,0.6404758320987224,-0.1528548896312713,-0.2793819010257721,0.715499997138977,walking
1783090594335003100,6.956003173828125,1.5587117900013925,-1.3660679882079363,0.992179145991802,-0.108484499156475,-0.3634442985057831,0.6294862627983093,walking
1783090594345048000,6.966048095703125,1.6309227474704384,-1.6373090875066816,0.9327981517404316,-0.0962863713502883,-0.4286270439624786,0.5255757570266724,walking
1783090594355092200,6.97609228515625,1.8178380886144936,-2.0220133382476866,0.8071125014543533,-0.1044598817825317,-0.4593836069107055,0.4182834029197693,walking
1783090594365137200,6.98613720703125,1.9525518256172536,-2.244149484246224,0.413046548128128,-0.1234354376792907,-0.4491357803344726,0.3042252659797668,walking
1783090594375181300,6.996181396484375,2.2314776341997087,-2.2629178976021707,-0.0365618441998958,-0.1215461865067482,-0.4176012873649597,0.223011627793312,walking
1783090594385226200,7.006226318359375,2.459357146155834,-2.2197632310085,-0.5015992763280869,-0.0686448067426681,-0.3604357838630676,0.1555954813957214,walking
1783090594395270100,7.016270263671875,2.43766466204673,-2.2510829367712137,-0.8643126445353031,0.0369263589382171,-0.2720286846160888,0.1050177961587905,walking
1783090594405315000,7.026315185546875,2.332361582314968,-2.2412474791944024,-0.8822907842963933,0.1562964469194412,-0.1739501506090164,0.0859870538115501,walking
1783090594415359200,7.036359130859375,2.214812915124744,-2.0924869505301116,-0.4850070379674434,0.2264283895492553,-0.1142785623669624,0.0850943624973297,walking
1783090594425404400,7.046404296875,2.0249054064273833,-1.6847512221612035,-0.0766617993980646,0.2356796860694885,-0.055245604366064,0.1240345686674118,walking
1783090594435448000,7.056447998046875,1.541888373233378,-0.7788176964707673,-0.0357096112847328,0.1947386413812637,0.0332088954746723,0.231578066945076,walking
1783090594445493200,7.0664931640625,1.6512208546116949,0.175369280257076,0.3557996432960033,0.1614276021718979,0.0461810790002346,0.3843072354793548,walking
1783090594455537400,7.076537353515625,1.2999703990526497,0.8914498039163649,0.4776572597265243,0.1446675211191177,0.0454811975359916,0.5149054527282715,walking
1783090594465582000,7.08658203125,0.8920102142781019,1.18088443929255,0.3157283296704292,0.1443511694669723,-0.0330738760530948,0.6285332441329956,walking
1783090594475626200,7.096626220703125,0.971819371791184,1.0804439971610904,0.3137701813399791,0.1777855604887008,-0.2038392275571823,0.6831650733947754,walking
1783090594485671200,7.106671142578125,0.69726973246634,0.5747103975072503,-0.1430038648337125,0.2388815581798553,-0.3591984808444977,0.6770297884941101,walking
1783090594495715000,7.116715087890625,0.4006780649423599,0.1584009020604193,-0.8120879517793655,0.315085768699646,-0.4383755922317505,0.6728190183639526,walking
1783090594505760300,7.12676025390625,0.124826695369184,0.1699273814640939,-1.404105165657401,0.4038488268852234,-0.4059590101242065,0.6910068988800049,walking
1783090594515804400,7.136804443359375,-0.1302630412042141,0.4236179187640547,-1.8241817585527895,0.4733506739139557,-0.2524970173835754,0.7125459909439087,walking
1783090594525849000,7.14684912109375,-0.3386982863694429,0.7241207683824002,-1.9864502958267929,0.4958823621273041,-0.0142322592437267,0.7167026400566101,walking
1783090594535893200,7.156893310546875,-0.5030228793904185,1.0611349010571838,-2.051235779470205,0.4667649567127228,0.2651988565921783,0.6808533072471619,walking
1783090594545938200,7.166938232421875,-0.4055553155899047,1.3206450844213369,-1.8991198028981684,0.3907417953014374,0.4849724769592285,0.6157199740409851,walking
1783090594555982000,7.176982177734375,-0.2345443766728043,1.4845954373024404,-1.5075982733577489,0.3193797171115875,0.5949066877365112,0.5573344230651855,walking
1783090594566027300,7.18702734375,-0.4052645159497857,1.5292216377533971,-1.2269786664694546,0.2897740602493286,0.6480858325958252,0.5327942371368408,walking
1783090594576071200,7.1970712890625,-0.412081356357783,1.4060413944169878,-0.8287848195582628,0.29422128200531,0.639575719833374,0.547195553779602,walking
1783090594586116400,7.207116455078125,-0.249529325967282,1.1155885219089683,-0.4443231454014777,0.2916348278522491,0.5552318692207336,0.5555459856987,walking
1783090594596160300,7.21716015625,-0.0189382169649004,0.7225259004063904,-0.2297732167482375,0.2767581343650818,0.4549577236175537,0.5381560921669006,walking
1783090594606205200,7.227205078125,0.2053515999361872,0.3978023633755743,-0.0225783270329236,0.24276764690876,0.3284018933773041,0.5219469666481018,walking
1783090594616249000,7.2372490234375,0.3388303883165121,0.1538615050651132,0.4390823221385478,0.209726333618164,0.1152741834521293,0.5062034130096436,walking
1783090594626294000,7.2472939453125,0.1358272512026131,-2.07505270838e-05,0.9352660031586884,0.2196302115917205,-0.1140825375914573,0.4801612198352813,walking
1783090594636338200,7.257338134765625,-0.1907322690837085,-0.207907129637897,1.3412819219976664,0.2699122726917267,-0.3233374953269958,0.4326056838035583,walking
1783090594646383400,7.26738330078125,-0.5062482711777091,-0.4016819812878966,1.4402654433190822,0.344078779220581,-0.4771004915237427,0.3744374811649322,walking
1783090594656427300,7.27742724609375,-0.9281148162297904,-0.4826216041356325,1.168957854655385,0.4165886640548706,-0.5233960151672363,0.3053995370864868,walking
1783090594666472200,7.28747216796875,-1.408792885082215,-0.5653584856636822,0.8754016093045472,0.4677474200725555,-0.4579053223133087,0.2363473176956176,walking
1783090594676516400,7.297516357421875,-1.779838758957386,-0.6389563674464821,0.5615075093239545,0.4894282221794128,-0.3340457081794739,0.1716809719800949,walking
1783090594686561000,7.30756103515625,-1.996238991652429,-0.6801296509645879,0.0913590177923441,0.5343155860900879,-0.1642805784940719,0.1065284386277198,walking
1783090594696605200,7.317605224609375,-1.8620286741271617,-0.5411792993053793,-0.4108078292906284,0.6096420288085938,0.0286167152225971,0.0473937503993511,walking
1783090594706650400,7.327650390625,-1.481409354612231,-0.4381612617708742,-0.7544236983180046,0.6692918539047241,0.1778583228588104,-0.0099576273933053,walking
1783090594716694000,7.337694091796875,-1.0867121176451444,-0.3308366130836307,-1.0123556725800036,0.6687419414520264,0.2895451784133911,-0.0400079376995563,walking
1783090594726739200,7.3477392578125,-0.7561087287954986,-0.1720093023046851,-1.1546803229779004,0.6048842668533325,0.3955115973949432,-0.0343502759933471,walking
1783090594736783400,7.357783447265625,-0.694339816494286,-0.0370722779400646,-1.290613811033964,0.5100166201591492,0.4710122048854828,0.0175134539604187,walking
1783090594746828300,7.367828369140625,-0.7079657523952424,0.0734552584417164,-1.2819336609721184,0.4345929324626922,0.5187949538230896,0.1159525141119957,walking
1783090594756872200,7.3778720703125,-0.6953175754852593,0.1864512307636439,-1.2819488585412502,0.418437123298645,0.5424008965492249,0.2218270152807235,walking
1783090594766917000,7.387917236328125,-0.706750531386584,0.2084263312064111,-1.3611550817251206,0.4564525485038757,0.5565546751022339,0.3159001469612121,walking
1783090594776960500,7.39796044921875,-0.718157256868109,0.2598823046121746,-1.276041095802188,0.4990183711051941,0.5374974012374878,0.4062390923500061,walking
1783090594787005700,7.408005615234375,-0.8012634100999683,0.2460118924308568,-1.0604577324479818,0.498887151479721,0.4975160360336303,0.4794298708438873,walking
1783090594797049600,7.418049560546875,-0.8116390389680862,0.1921723848894238,-0.8407640111654996,0.4696371257305145,0.4579263031482696,0.529254674911499,walking
1783090594807094500,7.428094482421875,-0.8507949913144112,0.2134989582955837,-0.5704471871048211,0.441244900226593,0.4268956482410431,0.5662091374397278,walking
1783090594817138700,7.438138671875,-0.8280996868383139,0.2312321103196591,-0.239058346965909,0.4191491603851318,0.3790935277938843,0.5948450565338135,walking
1783090594827183600,7.44818359375,-0.7050143552437425,0.2225344246011227,0.0657961219906806,0.3918404579162597,0.3221386075019836,0.6188706755638123,walking
1783090594837227500,7.4582275390625,-0.5965871521420777,0.2100211261171847,0.3462175759583711,0.3457374274730682,0.2454020082950592,0.6238830089569092,walking
1783090594847272700,7.468272705078125,-0.4823074236199259,0.2474010087016969,0.6359568933695554,0.2793834805488586,0.1347559243440628,0.6221614480018616,walking
1783090594857316600,7.478316650390625,-0.2808629141248762,0.3348050052579492,0.7864309479534626,0.21279938519001,0.0259327813982963,0.6546351909637451,walking
1783090594867361500,7.488361572265625,0.1514461875516921,0.260714225391671,0.8213999700039625,0.1647766083478927,-0.068370945751667,0.7204299569129944,walking
1783090594877405700,7.49840576171875,0.5438258682914078,0.0881462662909179,0.9179536338299512,0.1453382074832916,-0.1528378874063491,0.7795870304107666,walking
1783090594887450600,7.50845068359375,0.7828911564547568,-0.1525657661661505,1.080410387152433,0.140267938375473,-0.2329764515161514,0.8033238649368286,walking
1783090594897494500,7.51849462890625,0.8418527562502771,-0.3265066941205412,1.3191232816815377,0.1438890397548675,-0.3221726417541504,0.8017147779464722,walking
1783090594907539700,7.528539794921875,0.9124598587192596,-0.3069937460076063,1.5309885012954472,0.1561194807291031,-0.4041630625724792,0.7978906631469727,walking
1783090594917583600,7.53858349609375,0.7361198337338865,-0.2990147299524396,1.6793997781306504,0.1638556867837906,-0.4440857172012329,0.7823087573051453,walking
1783090594927628500,7.548628662109375,0.3856208541292697,-0.5185531876079738,1.797517038989067,0.1460679471492767,-0.4374713003635406,0.7375426888465881,walking
1783090594937672700,7.558672607421875,0.0453949198011308,-0.6883748436752707,1.8510756106972692,0.0955762788653373,-0.3978549242019653,0.7131198644638062,walking
1783090594947717600,7.568717529296875,-0.2659055834896862,-0.6341871802832931,1.8729589412033556,0.0273539777845144,-0.35511314868927,0.7129727602005005,walking
1783090594957761500,7.578761474609375,-0.3771444830112159,-0.8002287332899868,1.783275747668743,-0.0338446646928787,-0.3148466944694519,0.6742773056030273,walking
