time,seconds_elapsed,accel_x,accel_y,accel_z,gyro_x,gyro_y,gyro_z,label
1783088909048952300,0.061952392578125,0.0693552757769823,-0.0170537183925509,0.0341822555869817,-0.0287507195025682,-0.005799934733659,-0.0937364399433136,walking
1783088909058996500,0.07199658203125,0.0724571873150765,0.0109106855928897,-0.0705740039169788,-0.0155515596270561,0.0013133683241903,-0.1114390045404434,walking
1783088909069041200,0.082041259765625,0.0471205014847219,0.0358475584506988,-0.1899737058013677,0.0291894115507602,0.0143053289502859,-0.1132624745368957,walking
1783088909079085300,0.092085205078125,0.1121497307561337,0.1321612760409712,-0.2339467030405998,0.0804288983345031,0.0111241834238171,-0.0931145995855331,walking
1783088909089129500,0.10212939453125,0.1051427746035158,0.2029981686778366,-0.259836346578598,0.1267125010490417,0.025298049673438,-0.0654617846012115,walking
1783088909099173400,0.11217333984375,0.0352919703945517,0.2146916752114891,-0.1758171701550483,0.1566914319992065,0.0793309211730957,-0.0459360182285308,walking
1783088909109218300,0.12221826171875,0.0731577367998659,0.1683636392787098,0.0221522105753421,0.1632565855979919,0.1562390774488449,-0.0381747968494892,walking
1783088909119262500,0.132262451171875,0.094922117101401,0.1783664162464439,0.2340279515832662,0.1414583474397659,0.2295804023742675,-0.0313270129263401,walking
1783088909129306400,0.142306396484375,0.0651629386536777,0.1388058286219835,0.4208575141400099,0.0853934958577156,0.2818548083305359,-0.0271237567067146,walking
1783088909139350500,0.1523505859375,0.0285224762596189,0.0712418201759457,0.5328548308134079,-0.0058506606146693,0.2986007630825043,-0.0222890563309192,walking
1783088909149395500,0.1623955078125,0.1086214104995131,-0.0248750596679747,0.439723542651534,-0.0802536308765411,0.2948934137821197,-0.0169963091611862,walking
1783088909159439400,0.172439453125,0.2540691613540053,-0.0896845087088644,0.239207400047779,-0.0976885482668876,0.2764281332492828,-0.0047569535672664,walking
1783088909169483500,0.1824833984375,0.3408570718385279,-0.0614545856550335,0.0041425066322088,-0.0810187831521034,0.2228249162435531,0.0171782653778791,walking
1783088909179527200,0.192527099609375,0.3717693658441305,-0.0269742239043116,-0.2418535306423902,-0.0366502553224563,0.165245771408081,0.0450642257928848,walking
1783088909189571600,0.202571533203125,0.338714945243299,-0.0422793450638651,-0.3885591726034879,0.0264607518911361,0.1248172149062156,0.0650701150298118,walking
1783088909199615700,0.21261572265625,0.2030474146470427,-0.042328152641654,-0.3394803766578436,0.070096381008625,0.1049721390008926,0.0739600136876106,walking
1783088909209659600,0.22265966796875,0.1354739077202975,-0.0601959638960659,-0.2132785935431718,0.0849581658840179,0.0893322005867958,0.0787753909826278,walking
1783088909219704600,0.23270458984375,0.1216058336265385,-0.1076354682020842,-0.1244657531023025,0.0866186469793319,0.0675597935914993,0.0813216418027877,walking
1783088909229748700,0.242748779296875,0.1301417529121041,-0.1370944946594536,-0.0588578471601009,0.094703771173954,0.0439142882823944,0.08030316978693,walking
1783088909239792600,0.252792724609375,0.1617386681810021,-0.1379373752243816,-0.018752631264925,0.1100220084190368,0.0157891754060983,0.0692888721823692,walking
1783088909249836800,0.2628369140625,0.1888917557835578,-0.1746091095395386,0.0345505043774843,0.1177514716982841,-0.0095639489591121,0.0590353496372699,walking
1783088909259881500,0.272881591796875,0.237875859183073,-0.1631251541033387,0.0476379494875669,0.1138635203242302,-0.0244805794209241,0.0545942597091198,walking
1783088909269925600,0.282925537109375,0.2576163324415683,-0.1651633819326758,0.0482908604383468,0.1049908697605133,-0.0272372718900442,0.0444705449044704,walking
1783088909279969800,0.2929697265625,0.216873987686634,-0.1587755805917084,0.0181727855503559,0.0871703252196312,-0.0152120366692543,0.0291941221803426,walking
1783088909290013400,0.303013427734375,0.2147523193575441,-0.1375327399462461,0.0395586879283189,0.0679612979292869,0.0043983608484268,0.0130213070660829,walking
1783088909300058600,0.31305859375,0.2554870653279125,-0.1017677452124655,0.100669282451272,0.0412745550274848,0.018817514181137,0.0078411931172013,walking
1783088909310102800,0.323102783203125,0.3759646255768835,-0.1179525718159973,0.1688414859235286,0.0162752941250801,0.0181472934782505,0.0149934627115726,walking
1783088909320146700,0.333146728515625,0.4293946024693548,-0.1098937685228884,0.1249345396578311,-0.0036986786872148,0.0257474239915609,0.0320046693086624,walking
1783088909330190600,0.343190673828125,0.384479355943948,-0.0859096663452684,0.0686678780347108,-0.0072001824155449,0.0402626022696495,0.0545875318348407,walking
1783088909340235800,0.35323583984375,0.3672809683836996,-0.0623749153703451,0.0292664264947175,0.000615129712969,0.0569345243275165,0.074065089225769,walking
1783088909350279700,0.36327978515625,0.32961642363891,-0.017524404644221,-0.002388940963149,0.0129288416355848,0.0783689990639686,0.091301716864109,walking
1783088909360323600,0.373323486328125,0.271140123142302,-0.0396418361671268,0.0308311915934085,0.0121450731530785,0.0999877452850341,0.1098319888114929,walking
1783088909370368800,0.38336865234375,0.2995940642103553,-0.0643602439686655,0.076910805723071,-0.0086057391017675,0.1213468536734581,0.1200743690133094,walking
1783088909380412700,0.39341259765625,0.3157768449872732,-0.0960686567880213,0.0918219591289758,-0.0359446853399276,0.1323089599609375,0.1363990157842636,walking
1783088909390456600,0.40345654296875,0.3142604490749537,-0.1685325661048293,0.019722353079915,-0.055664662271738,0.154256522655487,0.1526689678430557,walking
1783088909400500500,0.41350048828125,0.3171088242433965,-0.2580027014106512,-0.0343137730121612,-0.0635241866111755,0.1758680790662765,0.1639911383390426,walking
1783088909410545700,0.423545654296875,0.3226050835721195,-0.2978698707662522,-0.0777063400149345,-0.0627869218587875,0.1814783960580825,0.1723679155111313,walking
1783088909420589600,0.433589599609375,0.3262200591988861,-0.3318270854257047,-0.1244341889202594,-0.0576014816761016,0.1861575692892074,0.1860616207122802,walking
1783088909430633500,0.443633544921875,0.3586719838619231,-0.3318094036385416,-0.159491473776102,-0.0460319221019744,0.1867680847644806,0.1986496597528457,walking
1783088909440677600,0.453677734375,0.3450030856020748,-0.3180998811073601,-0.1997749688476324,-0.0201619751751422,0.1970620155334472,0.2189437448978424,walking
1783088909450722800,0.463722900390625,0.4096579286031425,-0.3025798020228743,-0.2841454429268837,0.0009989014361053,0.2547508180141449,0.2390459924936294,walking
1783088909460766500,0.473766357421875,0.4251088879741728,-0.1548455476664006,-0.0216074361741542,0.0219649039208889,0.2981384992599487,0.2602564692497253,walking
1783088909470810600,0.483810546875,0.2317144139438867,-0.2358310554824769,0.1911433341026306,0.0023629621136933,0.3183104693889618,0.2747845947742462,walking
1783088909480854500,0.4938544921875,0.2061569249697029,-0.2619958627000451,0.0832926157146692,-0.0452072173357009,0.3291378319263458,0.29317107796669,walking
1783088909490899500,0.5038994140625,0.1908592564642429,-0.247732359547913,0.1926449708372354,-0.0884864926338195,0.336560308933258,0.3159066140651703,walking
1783088909500943600,0.513943603515625,0.2070076965801417,-0.2996282587409019,0.3265098359256982,-0.1236316934227943,0.2895970940589905,0.3288748562335968,walking
1783088909510987500,0.523987548828125,0.290406695278734,-0.4664302016608417,0.2536784084707498,-0.1534976661205291,0.1863699555397033,0.3249711096286773,walking
1783088909521031700,0.53403173828125,0.43573520366773,-0.5286712615184486,0.0535170706540346,-0.1575762927532196,0.025727279484272,0.3295717239379883,walking
1783088909531076600,0.54407666015625,0.4063872363694012,-0.5517278735876083,-0.3583879062235355,-0.099134474992752,-0.1200883015990257,0.3713564872741699,walking
1783088909541120500,0.55412060546875,0.3236531313203275,-0.4805407062083482,-0.6113695646017789,0.0132799502462148,-0.1957929134368896,0.4223240613937378,walking
1783088909551164700,0.56416455078125,0.2778407898247241,-0.3866648832894861,-0.5016401928603649,0.1094417348504066,-0.247267484664917,0.4530357122421264,walking
1783088909561209600,0.574209716796875,0.2988847468972206,-0.3211461169354617,-0.2798281642496585,0.1574334949254989,-0.2942147254943847,0.4827973544597626,walking
1783088909571253500,0.58425341796875,0.3521263616107404,-0.2866742307521402,-0.0714899497181177,0.1661800891160965,-0.3264382183551788,0.5100058317184448,walking
1783088909581297700,0.594297607421875,0.3811519650869071,-0.2560734869137406,0.0182581257462501,0.1512818336486816,-0.3345880210399627,0.527620792388916,walking
1783088909591341600,0.604341552734375,0.4034234181277453,-0.2345407234109938,0.0749953274905681,0.1142040118575096,-0.3293007910251617,0.538582980632782,walking
1783088909601386500,0.614386474609375,0.4500716259256005,-0.2268264957718551,0.1364396840125322,0.0645435154438018,-0.3088128268718719,0.5431889295578003,walking
1783088909611430700,0.6244306640625,0.431172571927309,-0.2021598181575536,0.1168926874995231,0.0124541353434324,-0.2936427593231201,0.5472596287727356,walking
1783088909621474600,0.634474609375,0.3309882965140044,-0.1797116933755576,0.0492021300643682,-0.0258908569812774,-0.2662742435932159,0.5573146343231201,walking
1783088909631518700,0.644518798828125,0.1776679125882685,-0.2436953591167926,0.0091582889676094,-0.0371866449713707,-0.2382135689258575,0.5598345994949341,walking
1783088909641563600,0.654563720703125,0.1336747493438422,-0.3114031599476933,-0.0778355193525552,-0.0218673460185527,-0.2119041979312896,0.5583158135414124,walking
1783088909651607600,0.664607666015625,0.1866087594129145,-0.3219955733716487,-0.1780675794303417,0.0078089693561196,-0.1931951940059662,0.554423451423645,walking
1783088909661651700,0.674651611328125,0.2058177561432123,-0.4039961034491658,-0.2875660650253295,0.053649429231882,-0.1795006841421127,0.5416163206100464,walking
1783088909671695600,0.684695556640625,0.2673258255511522,-0.4003878498241305,-0.3620692250847816,0.1072628423571586,-0.1616682857275009,0.5284712910652161,walking
1783088909681740500,0.694740478515625,0.2736277021743357,-0.3355120575487613,-0.24759821177423,0.1613625586032867,-0.1372516304254531,0.5203433036804199,walking
1783088909691784700,0.70478466796875,0.2901350387305021,-0.3776517018809914,-0.1163227786570787,0.1943793147802353,-0.1030318066477775,0.5115310549736023,walking
1783088909701828600,0.71482861328125,0.3459142090976238,-0.4324003601565956,0.0050660512179136,0.183062732219696,-0.0804074555635452,0.492434561252594,walking
1783088909711872500,0.72487255859375,0.3839984405592084,-0.4681878589831292,0.0727203682959079,0.1404038816690445,-0.0672167614102363,0.4674801826477051,walking
1783088909721917700,0.734917724609375,0.3661893737547099,-0.4467014188401401,0.0928559783518314,0.0867885947227478,-0.0489493422210216,0.4425031840801239,walking
1783088909731961600,0.744961669921875,0.3440820252344012,-0.4531247298859059,0.0406914913505315,0.041197333484888,-0.0413748510181903,0.4152797162532806,walking
1783088909742005500,0.755005615234375,0.3562988249897956,-0.4923215987645089,-0.1075029278635978,0.0256282296031713,-0.0352911278605461,0.3975308239459991,walking
1783088909752050700,0.76505078125,0.3409085097648203,-0.4897548170164227,-0.238873638048768,0.0461643785238266,-0.0373286008834838,0.393035888671875,walking
1783088909762094600,0.775094482421875,0.3593912380471825,-0.4852700728178024,-0.3248568080216646,0.0831136107444763,-0.0269278921186923,0.3901644647121429,walking
1783088909772138500,0.785138427734375,0.4349538440316915,-0.4648858948282897,-0.2862432919889688,0.1275213658809662,-0.0367932319641113,0.3823564648628235,walking
1783088909782182700,0.7951826171875,0.4389211402274668,-0.3926040640801191,-0.1954237879008054,0.1635512709617614,-0.0545285530388355,0.3836100101470947,walking
1783088909792227600,0.8052275390625,0.4078723603606223,-0.3051687956027686,-0.0663332976073026,0.1914912015199661,-0.0809598565101623,0.3934281170368194,walking
1783088909802271500,0.815271484375,0.4302897977434098,-0.2146443289384245,0.0384703081697225,0.2050003558397293,-0.1228569746017456,0.4160791039466858,walking
1783088909812315600,0.825315673828125,0.4912780810609459,-0.1526638197131455,0.1145499237656593,0.2114197015762329,-0.1718755513429641,0.4464167356491089,walking
1783088909822359600,0.835359619140625,0.602018383410573,-0.0294349149294197,0.2935217585593462,0.2257645577192306,-0.2341866046190261,0.474684327840805,walking
1783088909832404700,0.84540478515625,0.6960502736739814,0.1028532023616135,0.5253074841737747,0.2504840195178985,-0.3113903403282165,0.4956960082054138,walking
1783088909842448600,0.85544873046875,0.7717062570303678,0.1834372897699475,0.7038099478900433,0.2855594456195831,-0.4098516702651977,0.51406329870224,walking
1783088909852492500,0.865492431640625,0.7772234130166471,0.2814120724402368,0.8527940561771392,0.3196848332881927,-0.51639324426651,0.5307141542434692,walking
1783088909862536700,0.87553662109375,0.7419887257672846,0.3456977898679673,0.9740601364552974,0.3675855100154876,-0.6254329085350037,0.5476289987564087,walking
1783088909872581600,0.88558154296875,0.5946580837756394,0.4026834134154021,1.092486609393358,0.4122258424758911,-0.720747709274292,0.5685893297195435,walking
1783088909882625500,0.89562548828125,0.3656101125620305,0.4209937077403068,1.152402441173792,0.4472754299640655,-0.8018958568572998,0.5875704884529114,walking
1783088909892669700,0.905669677734375,0.0983355788066983,0.3791146140404045,1.0967302383124828,0.4661620855331421,-0.8535239696502686,0.6170235276222229,walking
1783088909902714600,0.915714599609375,-0.0839613087564706,0.267429724317044,0.8720926308870315,0.4700942635536194,-0.8748111724853516,0.643690288066864,walking
1783088909912758500,0.925758544921875,-0.1349117437928915,0.1261217036157846,0.5189613300174475,0.4554831385612488,-0.8499207496643066,0.6565427184104919,walking
1783088909922802700,0.935802734375,-0.1569163625910878,0.0304258256629109,0.0473392588019371,0.4251646399497986,-0.761660099029541,0.6645370125770569,walking
1783088909932846600,0.9458466796875,-0.2309609652280807,-0.0332724472656846,-0.4255348583012819,0.388121098279953,-0.6377663612365723,0.6720084547996521,walking
1783088909942891500,0.9558916015625,-0.3936632177442312,-0.2453063014447689,-0.8659493058264255,0.3547165393829345,-0.48035329580307,0.6495987772941589,walking
1783088909952935700,0.965935791015625,-0.7069862398386001,-0.4446773656666278,-1.2245821267217396,0.3259262442588806,-0.306932121515274,0.614798903465271,walking
1783088909962979600,0.9759794921875,-0.8622434370458125,-0.5318254877656698,-1.26835287938714,0.3071501553058624,-0.1741008311510086,0.5957045555114746,walking
1783088909973023700,0.986023681640625,-0.7992144416809082,-0.6082591774962842,-1.1033902807235718,0.2999998331069946,-0.0798422321677208,0.5916621685028076,walking
1783088909983068700,0.996068603515625,-0.7311930448561906,-0.6283868965066969,-1.0774930384010075,0.2847785353660583,-0.0201373640447855,0.5769596695899963,walking
1783088909993112600,1.006112548828125,-0.8529737966582178,-0.6188512986592948,-1.134472232207656,0.2729605138301849,0.0141772218048572,0.5414100289344788,walking
1783088910003156700,1.01615673828125,-0.8916288137450814,-0.5051800574243068,-1.2850813113480806,0.2802269458770752,0.0334052443504333,0.5100920796394348,walking
1783088910013200600,1.02620068359375,-0.9647226915284992,-0.2544851948089897,-1.3243027301460504,0.315353512763977,0.0451585724949836,0.5040147304534912,walking
1783088910023245600,1.03624560546875,-1.1146221610948444,-0.0896276639550924,-1.1832891623467203,0.3747414648532867,0.0507530756294727,0.5431507229804993,walking
1783088910033289700,1.046289794921875,-1.1405305093333125,0.0983851170368492,-0.771663002410531,0.4181284606456756,-0.0001732870005071,0.6322972178459167,walking
1783088910043333600,1.056333740234375,-0.943241804343462,-0.0032063948258757,-0.2180553064256906,0.4329912960529327,-0.0987824201583862,0.7248372435569763,walking
1783088910053377500,1.06637744140625,-0.8009396580383181,-0.5489231914304197,0.2114946327358484,0.4204486906528473,-0.2351661324501037,0.75655198097229,walking
1783088910063422700,1.076422607421875,-0.8820683737173676,-1.1974984510935842,0.556991493204236,0.4111968576908111,-0.3692328333854675,0.7107418775558472,walking
1783088910073466600,1.086466552734375,-1.11392131934911,-1.4931281417176123,0.6506932747304439,0.415861576795578,-0.4541109800338745,0.6379526853561401,walking
1783088910083510500,1.096510498046875,-1.0735840482637289,-1.4915452564403413,0.6504384231865405,0.4431813359260559,-0.4876806437969208,0.575275182723999,walking
1783088910093554400,1.106554443359375,-0.7746291587397456,-1.3254977851495149,0.4788619593411684,0.4778361618518829,-0.4730740785598755,0.5417405962944031,walking
1783088910103599600,1.116599609375,-0.3427592521980405,-0.9983642643675208,0.2465641925513744,0.5027958750724792,-0.431858479976654,0.5229661464691162,walking
1783088910113643500,1.1266435546875,0.0680330872625112,-0.6767587862920016,-0.0167442140519618,0.5117315649986267,-0.3683766722679138,0.5179814696311951,walking
1783088910123687400,1.1366875,0.2701858911573886,-0.3839250099968165,-0.2569768654942512,0.5114889144897461,-0.2632331848144531,0.5447028279304504,walking
1783088910133731600,1.146731689453125,0.5413701457023621,-0.2827667749848216,-0.0484855062276124,0.4931274652481079,-0.2039099037647247,0.5981146097183228,walking
1783088910143776800,1.15677685546875,0.7937447780981659,-0.3874236657675355,0.1721662464320659,0.4613002836704254,-0.1607230305671692,0.6529008746147156,walking
1783088910153820400,1.1668203125,0.8850923977136611,-0.1254183776520192,0.4096680116057395,0.3966313898563385,-0.155652105808258,0.7366308569908142,walking
1783088910163864600,1.176864501953125,0.6842118057116866,-0.4934457804888487,0.8521756320178508,0.3409004807472229,-0.1921882778406143,0.8424001336097717,walking
1783088910173909800,1.18690966796875,0.6161670280113816,-0.66987531038858,0.5500152244508266,0.2951422035694122,-0.1289834678173065,0.9083291292190552,walking
1783088910183953400,1.196953369140625,0.3407330070674419,-0.8277920821938664,0.5126274508208036,0.2732318341732025,-0.0661278069019317,0.9514850974082948,walking
1783088910193998300,1.206998291015625,0.07799450930655,-0.9903764074187724,0.0814905347287654,0.2620128989219665,0.0293685011565685,0.9790605306625366,walking
1783088910204042500,1.21704248046875,0.2080436154991388,-1.1397953999917954,0.1640109970271587,0.274236798286438,0.1118772253394126,0.9434053301811218,walking
1783088910214087200,1.227087158203125,0.246397019290924,-1.2377455596774816,0.2727460970342159,0.297941505908966,0.1593084633350372,0.8783398270606995,walking
1783088910224131300,1.23713134765625,0.3243801304206252,-1.0275441816225648,0.298242357340455,0.3057778477668762,0.1593007296323776,0.8414472937583923,walking
1783088910234175500,1.247175537109375,0.6252426071316003,-0.944486689838022,0.2575958741754293,0.2791420817375183,0.1196471527218818,0.8442756533622742,walking
1783088910244219400,1.257219482421875,0.6408692153304815,-0.7499180574618279,-0.0801420427292585,0.2346691638231277,0.1077942252159118,0.8939515948295593,walking
1783088910254264300,1.267264404296875,0.5098091785296798,-0.6097937666524201,-0.1866770023435354,0.1959679424762725,0.0846607759594917,0.967095911502838,walking
1783088910264308500,1.27730859375,0.518999323940277,-0.6915664062581955,-0.1812970628708601,0.1991237848997116,0.0714456364512443,1.0127030611038208,walking
1783088910274352400,1.287352294921875,0.4491360986411571,-0.6413499115195125,-0.1513905849069357,0.2206790000200271,0.0534097626805305,1.034190654754639,walking
1783088910284396300,1.297396240234375,0.313917773117125,-0.7133959607504308,0.1740513295263052,0.2610296308994293,0.0108993183821439,1.0430259704589844,walking
1783088910294441500,1.30744140625,0.2210848833799362,-1.0831747372992335,0.4603016357779502,0.3013328611850738,-0.0361813232302665,1.0063073635101318,walking
1783088910304485400,1.3174853515625,0.3081190237104892,-1.4225307569250465,0.5723480522900819,0.3368208110332489,-0.0908075496554374,0.9052689671516418,walking
1783088910314529500,1.327529541015625,0.4000397670388221,-1.6342809718571605,0.6806126121759414,0.379103273153305,-0.1410352289676666,0.7811300754547119,walking
1783088910324573200,1.3375732421875,0.412757502053678,-1.6702929270893334,0.590602670904994,0.3861673176288605,-0.1734070181846618,0.6827033758163452,walking
1783088910334618400,1.347618408203125,0.4421934398964047,-1.5182468008831145,0.399957933974266,0.3460572957992553,-0.1849151849746704,0.640641450881958,walking
1783088910344662500,1.35766259765625,0.5743821884661913,-1.2674511082418265,0.3783358847528696,0.3020240664482116,-0.1868944466114044,0.6610572934150696,walking
1783088910354706200,1.3677060546875,0.7374409993350506,-1.1293057162899522,0.3869815480232239,0.2716882526874542,-0.1758154481649398,0.7076869606971741,walking
1783088910364750300,1.377750244140625,0.7698290649816394,-1.1477415366906671,0.353737450069189,0.2482905089855194,-0.1564398854970932,0.7497145533561707,walking
1783088910374795500,1.38779541015625,0.6179270234212279,-1.1519467332955449,0.3208037332385778,0.2410327494144439,-0.1315989643335342,0.7962014675140381,walking
1783088910384839400,1.39783935546875,0.5775608185023069,-1.09972372104004,0.1253390288054943,0.2188267707824707,-0.0668442174792289,0.8475970029830933,walking
1783088910394883300,1.40788330078125,0.5910080368354916,-1.1473130821455269,0.2785696886211633,0.1751241534948349,-0.0863556042313575,0.8753345608711243,walking
1783088910404927200,1.41792724609375,0.2437064650326967,-0.9621426849726586,0.4550274947673082,0.2663510143756866,-0.0672136023640632,0.9758904576301576,walking
1783088910414972400,1.427972412109375,-0.0738517104133963,-0.9519093871846794,-0.4481868350923061,0.2663505971431732,-0.0411347448825836,1.0490708351135254,walking
1783088910425016300,1.438016357421875,-0.1129497950926423,-0.7093089836977422,-0.8678501710116863,0.1861321777105331,-0.0150288408622145,1.1151835918426514,walking
1783088910435060200,1.448060302734375,-0.2322650335639715,-0.1430621708922088,-1.5404367131203411,0.1260175555944442,0.1032688990235328,1.2242629528045654,walking
1783088910445105400,1.45810546875,0.2439981414556503,0.2154807066973298,-2.3088374988645315,0.0791552513837814,0.2839366793632507,1.3148036003112793,walking
1783088910455149300,1.4681494140625,1.015376189444959,0.6969064521118998,-2.6591771231889725,0.0545450374484062,0.4387003481388092,1.3996280431747437,walking
1783088910465193200,1.478193115234375,1.5139359519466755,0.8865237456910312,-2.475752400639653,0.0763587281107902,0.5397502779960632,1.4692732095718384,walking
1783088910475237400,1.4882373046875,1.304308866648376,0.7810583150044084,-1.9496353536486624,0.1421132981777191,0.5692839622497559,1.50711190700531,walking
1783088910485282300,1.4982822265625,0.9267536108791828,0.6973687358614057,-1.001115316641331,0.2371082454919815,0.5197230577468872,1.5260088443756104,walking
1783088910495326200,1.508326171875,0.4588564054057001,0.6057843848805874,0.0121685766994953,0.319594144821167,0.3781766891479492,1.5365606546401978,walking
1783088910505370400,1.518370361328125,-0.2835185432001948,0.4575763024672865,0.637940176141262,0.3458116054534912,0.1773831397294998,1.5364232063293457,walking
1783088910515414500,1.52841455078125,-0.6801650145389139,0.0022275398563593,0.9784773683756588,0.3255048990249634,-0.0332002229988575,1.4659682512283323,walking
1783088910525459200,1.538459228515625,-0.6172247203707695,-0.3791569188121706,0.9996113418191672,0.2637725472450256,-0.2221541553735733,1.3394949436187744,walking
1783088910535503400,1.54850341796875,-0.5465962097875774,-0.4807642858311534,0.7807131548285484,0.1796192377805709,-0.3613100051879883,1.207533836364746,walking
1783088910545547300,1.55854736328125,-0.2984622837014496,-0.5242074139773846,0.4185802168577909,0.1276897341012954,-0.4229701459407806,1.1135778427124023,walking
1783088910555591400,1.56859130859375,0.1247125674702227,-0.5281299942485987,-0.0068289692372083,0.137676790356636,-0.408866286277771,1.063522458076477,walking
1783088910565636400,1.57863623046875,0.2712503055185079,-0.2319596939418464,-0.4420452635973692,0.2075687944889068,-0.3397620320320129,1.0363900661468506,walking
1783088910575680300,1.58868017578125,0.4601142965123057,0.0160419840667396,-0.6517874997079373,0.3204217851161957,-0.2439984083175659,1.0052365064620972,walking
1783088910585724400,1.598724365234375,0.5671301715113223,0.0805576377928257,-0.6241723475515842,0.406392365694046,-0.1482665538787841,0.9669670462608336,walking
1783088910595768600,1.6087685546875,0.6048050915196538,0.279869226912409,-0.3891144683986902,0.4253145754337311,-0.089345782995224,0.9496532082557678,walking
1783088910605813200,1.618813232421875,1.3760866933971645,0.3827439104534685,-0.0032476036190986,0.3585312962532043,-0.0833909511566162,0.9226157069206238,walking
1783088910615857400,1.628857421875,1.7413164283394813,0.5077676627647132,0.0240747030705213,0.1702451854944229,-0.0800037756562233,0.8913584351539612,walking
1783088910625901600,1.638901611328125,1.2105142922721803,0.848165884919837,0.0994669209241867,0.1497076898813247,0.0072275325655937,0.9145793318748474,walking
1783088910635945200,1.6489453125,1.1233758147843182,0.8908267766471951,-0.130397481238842,0.1132777035236358,0.1265600174665451,0.9600653052330016,walking
1783088910645990400,1.658990478515625,1.3320787709750237,0.9280629399120808,0.05744213514328,-0.0006147765088826,0.2017192095518112,1.051034688949585,walking
1783088910656034600,1.66903466796875,1.2640845544181762,1.0513348070546984,0.3650239832371473,-0.0659506320953369,0.1885891556739807,1.1628711223602295,walking
1783088910666078200,1.679078125,1.0175989800609648,1.027962626230344,0.3054588645905256,-0.0442786216735839,0.1341283172369003,1.2651509046554563,walking
1783088910676122400,1.689122314453125,0.780480807377398,0.957116819634661,0.1473509541273117,0.0022233496420085,0.0546740666031837,1.3722290992736816,walking
1783088910686167600,1.69916748046875,0.8088318725928664,0.8515014590833335,0.3742641052693128,0.035759475082159,-0.0926557332277298,1.4851555824279783,walking
1783088910696211500,1.70921142578125,0.9251339007228612,0.8142435223780572,0.7375900524169207,0.0702667459845542,-0.2590208351612091,1.5790293216705322,walking
1783088910706255400,1.71925537109375,0.7539939285986125,0.902934197743982,0.9153490042895078,0.1232378184795379,-0.34345743060112,1.6222169399261477,walking
1783088910716299300,1.72929931640625,0.6416308473527431,0.9986844362325966,1.14597153134346,0.1366841346025467,-0.3811788558959961,1.6198458671569824,walking
1783088910726344400,1.739344482421875,0.7102014024928212,0.9108340110830964,1.2359230204254388,0.021839577704668,-0.4030178189277649,1.5976710319519043,walking
1783088910736388400,1.749388427734375,0.520740468519181,0.7002876189827919,1.009353568154573,-0.162567913532257,-0.3587710857391357,1.5668823719024658,walking
1783088910746432300,1.759432373046875,0.4703527819320559,0.3394846144415438,0.6712824737727642,-0.3068358898162842,-0.2478725165128708,1.5204459428787231,walking
1783088910756476400,1.769476318359375,0.7620771356806159,0.076899699807167,0.3611351591050624,-0.3587622344493866,-0.1343659460544586,1.468109369277954,walking
1783088910766521300,1.779521240234375,1.0633512619324028,-0.1029490639515221,-0.1458949101001024,-0.363139659166336,-0.0240602102130651,1.416694402694702,walking
1783088910776565200,1.789565185546875,1.156786647607386,-0.2718738442443311,-0.5935393088787794,-0.3260787427425384,0.0668334364891052,1.3507250547409058,walking
1783088910786609400,1.799609375,1.2186162040546535,-0.5256577589161694,-1.0158230564296244,-0.2819227278232574,0.1312302649021148,1.264835000038147,walking
1783088910796653300,1.8096533203125,1.2775409789711236,-0.8067733326278627,-1.1657634425282477,-0.2348318248987198,0.1371906101703643,1.1509610414505005,walking
1783088910806698200,1.8196982421875,1.241129356896877,-0.8487532563537359,-1.1263339339375495,-0.208795428276062,0.0958058983087539,1.0497702360153198,walking
1783088910816742400,1.829742431640625,1.277524027836323,-0.7491537950910627,-0.8940344135820865,-0.1938888728618621,0.0179174020886421,0.9835953116416932,walking
1783088910826786300,1.839786376953125,1.2223694191083312,-0.7325877140849828,-0.5741203226596117,-0.1614417135715484,-0.0771300122141838,0.9394217133522034,walking
1783088910836831200,1.849831298828125,1.0378985485069454,-0.7329850428394973,-0.3755465462952852,-0.1023870855569839,-0.1563900858163833,0.9245036840438844,walking
1783088910846875400,1.85987548828125,0.9412425933502614,-0.732186439807713,-0.1980786863237619,-0.024725841358304,-0.2071147859096527,0.9055190682411194,walking
1783088910856919300,1.869919189453125,0.9852196822427212,-0.7191752748042345,0.0073813424229621,0.0182289667427539,-0.2335274666547775,0.8970662951469421,walking
1783088910866963500,1.87996337890625,1.175711274438351,-0.6478446073010563,0.2501747842639684,-0.0038659502752125,-0.259616881608963,0.8888280987739563,walking
1783088910877008400,1.89000830078125,1.1829438560403882,-0.5133753465786576,0.2512374450594186,-0.1235830634832382,-0.2478913068771362,0.881788432598114,walking
1783088910887052300,1.90005224609375,1.1048898716315627,-0.5118376156173646,0.2870961094260215,-0.2524643540382385,-0.2351946681737899,0.8910700678825378,walking
1783088910897096400,1.910096435546875,0.9272562997043132,-0.6209048701882361,0.1507978797107934,-0.324071854352951,-0.2125321328639984,0.9230403304100036,walking
1783088910907140400,1.920140380859375,0.7968633485101163,-0.7328067636631429,-0.0820370626956224,-0.2913962006568908,-0.1874041408300399,0.9573500752449036,walking
1783088910917185300,1.930185302734375,0.908027429229766,-0.8523205934464931,-0.1070259580016136,-0.1904361695051193,-0.1773888766765594,0.985301673412323,walking
1783088910927229400,1.9402294921875,0.995332203195244,-0.9692403150834142,-0.0208130709260702,-0.0727113857865333,-0.1762762069702148,0.9916653037071228,walking
1783088910937273300,1.9502734375,1.0357597829125822,-1.1051425312183796,0.033497195932269,0.0416615568101406,-0.1667215675115585,0.9789963364601136,walking
1783088910947317200,1.960317138671875,0.8529587452195584,-1.2269646379441022,-0.0044973114192485,0.124104231595993,-0.1289661973714828,0.9458975195884703,walking
1783088910957362400,1.970362548828125,0.823940156006068,-1.3318499306552112,0.1807131255030632,0.1582245379686355,-0.0964851826429367,0.8879181146621704,walking
1783088910967406300,1.98040625,0.9370401732243596,-1.299833620930463,0.3635410512030124,0.1538790613412857,-0.0747985243797302,0.8134052753448486,walking
1783088910977450500,1.990450439453125,1.07281657102257,-1.177554564217478,0.449759198975563,0.1218230873346328,-0.0673214793205261,0.727264940738678,walking
1783088910987494400,2.000494384765625,1.252278819681704,-1.169869708803296,0.4657324286550283,0.0706397891044616,-0.0936044827103614,0.6359366178512573,walking
1783088910997539300,2.010539306640625,1.2937142612673342,-1.2801637286901473,0.3056593555986881,-0.0215309951454401,-0.1207562088966369,0.5426978468894958,walking
1783088911007583500,2.02058349609375,1.368093648816645,-1.5139511495158076,0.1895768154382705,-0.1443972736597061,-0.120860069990158,0.4568607211112976,walking
1783088911017627400,2.03062744140625,1.5186239636324346,-1.6368251033820211,0.1138292082756757,-0.2134737372398376,-0.1334919333457946,0.4254122078418731,walking
1783088911027671300,2.04067138671875,1.494806304062903,-1.7618728941559791,-0.2340782204657792,-0.18340665102005,-0.12403105199337,0.4158522486686706,walking
1783088911037716500,2.050716552734375,1.4688631767719984,-1.801060702945292,-0.5468535455495119,-0.0817897468805313,-0.1055148914456367,0.4189029037952423,walking
1783088911047760100,2.060760009765625,1.4932250262208282,-1.7507028269745408,-0.5875736784726381,0.0340754389762878,-0.1057414337992668,0.4267281591892242,walking
1783088911057804300,2.07080419921875,1.3937639505155384,-1.6056966824077068,-0.4861638067871331,0.112170785665512,-0.1274028867483139,0.4431458115577698,walking
1783088911067848400,2.080848388671875,1.145965978385508,-1.5324826853759586,-0.395478158211708,0.1745188534259796,-0.1494948714971542,0.4667675197124481,walking
1783088911077893400,2.090893310546875,0.8451303896814584,-1.416027950902283,-0.2914695022046565,0.2259407341480255,-0.1478903442621231,0.4694456160068512,walking
1783088911087937300,2.100937255859375,0.7858667381994425,-1.3196933366544543,-0.1069499701559543,0.2352753728628158,-0.145424798130989,0.4332489967346191,walking
1783088911097981400,2.1109814453125,0.8596709562093019,-1.0852852997124194,0.1187520516306161,0.2020066678524017,-0.160415694117546,0.3975988328456878,walking
1783088911108025300,2.121025390625,0.8666333425678312,-0.7074148405142128,0.1087538047075271,0.1304435282945633,-0.1737860888242721,0.3891142606735229,walking
1783088911118070300,2.1310703125,0.768404877397418,-0.2707315423414111,-0.1467652631938457,0.046715784817934,-0.1691102087497711,0.4202952682971954,walking
1783088911128114400,2.141114501953125,1.0797099837981163,0.1403372759729623,-0.3930249198406934,-0.0228640940040349,-0.1916546672582626,0.4885459542274475,walking
1783088911138158300,2.151158447265625,1.6982263514146207,0.3502186282932758,-0.5440618690043687,-0.0378455556929111,-0.2761594355106354,0.5698071122169495,walking
1783088911148202500,2.161202392578125,1.949078596548736,0.2749766325652599,-0.8885925147891044,0.0035982900299131,-0.3970624208450317,0.6098645329475403,walking
1783088911158247400,2.171247314453125,1.88487281248942,0.0257999194279313,-1.13867962076962,0.0646674260497093,-0.5203147530555725,0.6029729247093201,walking
1783088911168291300,2.181291259765625,1.868183397364616,-0.1354585640206932,-1.2704583272337913,0.1386015713214874,-0.6401889324188232,0.5906352996826172,walking
1783088911178335500,2.19133544921875,1.8852825623340903,-0.2481625676587223,-1.3139409106075763,0.2158727496862411,-0.7457072734832764,0.5737723708152771,walking
1783088911188379100,2.201379150390625,1.7711539327204229,-0.2346700488790869,-1.2443307832866906,0.2933073341846466,-0.8216649293899536,0.5611705183982849,walking
1783088911198424000,2.211424072265625,1.3704923805214464,-0.157451200120151,-1.194963233527541,0.3513124883174896,-0.8650013208389282,0.5607185363769531,walking
1783088911208468000,2.221468017578125,0.8466206282392144,0.0419821156829595,-1.1304852083981036,0.3906505703926086,-0.8566054701805115,0.5713237524032593,walking
1783088911218512100,2.23151220703125,0.2939695023268461,0.5756053005203604,-1.13470662548542,0.4165878593921661,-0.7565774321556091,0.6016874313354492,walking
1783088911228556000,2.24155615234375,-0.2320323938518762,1.3337811909787356,-1.1486369511604309,0.4306847751140594,-0.5673401355743408,0.663183331489563,walking
1783088911238601000,2.25160107421875,-0.4907713005825876,1.7237755109518766,-0.8814899893075228,0.4298840463161468,-0.3460587561130523,0.7434828877449036,walking
1783088911248645000,2.26164501953125,-0.4160188419371843,1.7397680298537015,-0.4171113133490085,0.4183059334754944,-0.1605307161808014,0.8146782517433167,walking
1783088911258689000,2.27168896484375,-0.3006500030040741,1.4402997839801013,-0.1484925253778696,0.3945769071578979,-0.0247584134340286,0.8604340553283691,walking
1783088911268733000,2.28173291015625,-0.2120999051526188,0.987196096882224,-0.0839303290963172,0.3712244629859924,0.0732501745223999,0.8740039467811584,walking
1783088911278778000,2.291778076171875,-0.17781886536628,0.5571884770810603,-0.1097907465398311,0.3633820414543152,0.1209770068526268,0.8547717928886414,walking
1783088911288822000,2.301822021484375,-0.086618253006041,0.370416197669506,-0.1648240669757127,0.352373868227005,0.1408359408378601,0.8157436847686768,walking
1783088911298866000,2.311865966796875,0.2062555630385875,0.3537893263868987,-0.0984089363038539,0.3243706524372101,0.1050836220383644,0.7909746170043945,walking
1783088911308911000,2.3219111328125,0.5079422156140208,0.3583592646509408,-0.0799544112026691,0.2956031858921051,0.0151212373748421,0.7883660793304443,walking
1783088911318955000,2.331955078125,0.5108813378058373,0.2136801600813865,-0.1319867962568998,0.2763628363609314,-0.1299332976341247,0.7771483659744263,walking
1783088911328999200,2.341999267578125,0.2602525261640548,0.0014290098898112,-0.2790174323886633,0.2674670815467834,-0.260587990283966,0.7478969693183899,walking
1783088911339043000,2.35204296875,-0.2366372572988271,-0.0626873423203825,-0.4787199205219745,0.2822244763374328,-0.3231838941574096,0.7216346263885498,walking
1783088911349088000,2.362087890625,-0.7913114134714007,-0.0306444368496537,-0.5178220968544482,0.3302133083343506,-0.3205567002296448,0.7070450186729431,walking
1783088911359132200,2.372132080078125,-1.0035735234484076,0.0226871942348778,-0.4498685045689344,0.4020128846168518,-0.2713513970375061,0.703769862651825,walking
1783088911369175800,2.38217578125,-1.1208140014722945,-0.0230640647232532,-0.4690180261969566,0.4640464186668396,-0.1799911111593246,0.6782841682434082,walking
1783088911379220000,2.392219970703125,-1.2256915492683649,-0.2780741601891816,-0.5476192692250013,0.5001274943351746,-0.0693004950881004,0.6185473203659058,walking
1783088911389265200,2.40226513671875,-1.1911059735774994,-0.5802402668446303,-0.4667886597096919,0.5155128836631775,0.0391080044209957,0.5257486701011658,walking
1783088911399308800,2.412308837890625,-1.168042201115191,-0.7328723762452602,-0.5913590422302484,0.5313449501991272,0.1541647911071777,0.4267671406269073,walking
1783088911409353000,2.42235302734375,-1.182289483784884,-0.6731060359381139,-0.8318529749572277,0.5466631650924683,0.2881143391132355,0.333961546421051,walking
1783088911419397000,2.432397216796875,-1.0061429355449971,-0.6190463828399777,-0.8468874624818563,0.5536530613899231,0.4008687734603882,0.2575902640819549,walking
1783088911429442000,2.442442138671875,-0.8117671953923999,-0.521946191047132,-0.7699439235329627,0.5507060289382935,0.4937366545200348,0.1966278553009033,walking
1783088911439486000,2.45248583984375,-0.6543585192397237,-0.4209982377849519,-0.6929623906612395,0.5412577390670776,0.5650994777679443,0.1463817358016967,walking
1783088911449530000,2.462530029296875,-0.4919431208409369,-0.3089092973053455,-0.4178133241385221,0.5245541334152222,0.5763313174247742,0.1170651391148567,walking
1783088911459574000,2.472573974609375,-0.3698743458777666,-0.1937212217666208,-0.1765799712210893,0.5159322619438171,0.5436664819717407,0.1046624854207038,walking
1783088911469619000,2.482618896484375,-0.2720740429915487,-0.1020798799015581,0.0463496632426977,0.5163367986679077,0.4840050041675567,0.1083464324474334,walking
1783088911479663000,2.4926630859375,-0.2944813973717391,0.063682490837574,0.4253887278288603,0.5092722177505493,0.3764144480228424,0.148603543639183,walking
1783088911489707000,2.50270703125,-0.2354571076035499,0.0139839555583894,0.7251578563451766,0.4778692722320556,0.2713695168495178,0.1860222816467285,walking
1783088911499751200,2.512751220703125,-0.2030779559157788,-0.045020314335078,1.0414999339997768,0.4430481791496277,0.1630704402923584,0.2334533035755157,walking
1783088911509796000,2.522796142578125,-0.1737964779824018,-0.0598996112979948,1.1993301965653895,0.4111094176769256,0.0763661637902259,0.2780135869979858,walking
1783088911519840000,2.532840087890625,-0.0108612934932112,0.0046155309714376,1.2553852612644434,0.3732771277427673,0.0069787935353815,0.3235165178775787,walking
1783088911529884200,2.54288427734375,0.1538520065844059,0.1653179879724979,1.231851240941882,0.3192615509033203,-0.0392627380788326,0.3815489411354065,walking
1783088911539928000,2.552927978515625,0.2095142725735902,0.3109153764307499,1.0905500883728263,0.24238221347332,-0.0534695796668529,0.4484867453575134,walking
1783088911549973000,2.562972900390625,0.2905499031417071,0.2805665615268051,0.9802817874491214,0.1455571204423904,-0.0561295449733734,0.5061905384063721,walking
1783088911560017200,2.57301708984375,0.4705656940303742,0.1717807542458176,0.8434680094271898,0.0616570450365543,-0.0627796649932861,0.5584343075752258,walking
1783088911570061000,2.58306103515625,0.6478298481233418,-0.0305725406572222,0.5854243914842605,0.027198938652873,-0.0593572407960891,0.5978392362594604,walking
1783088911580105000,2.59310498046875,0.802305101172626,-0.1717237633615732,0.3813876735389232,0.0499562174081802,-0.063697338104248,0.6310611963272095,walking
1783088911590150100,2.603150146484375,0.8192125429622829,-0.113151747405529,0.2501601712167263,0.1381473392248153,-0.0811421126127243,0.6614965796470642,walking
1783088911600194000,2.613194091796875,0.6834320535108447,-0.0869292186513543,0.2677577872276306,0.2475382685661316,-0.1031639501452446,0.6906805634498596,walking
1783088911610238000,2.623238037109375,0.4522589068368077,-0.1382017252489924,0.5424450814574957,0.3103017807006836,-0.1488227844238281,0.7196565270423889,walking
1783088911620281900,2.63328173828125,0.1961138159915804,-0.306171542904526,0.9063228172689676,0.2897655367851257,-0.2158318161964416,0.7431303858757019,walking
1783088911630327000,2.6433271484375,0.0500574317194521,-0.4108493303447961,1.1583008515626192,0.227783665060997,-0.2938107848167419,0.7648460865020752,walking
1783088911640371200,2.65337109375,0.0097805125191807,-0.4441305454388261,1.2361901469290255,0.1787152588367462,-0.3568495810031891,0.7860246896743774,walking
1783088911650414800,2.663414794921875,0.1347014620430767,-0.5848892616942525,1.238173429700732,0.1600377112627029,-0.4011318385601043,0.7898308634757996,walking
1783088911660459000,2.673458984375,0.0966315513677895,-0.7528682855695485,0.8997259032219648,0.1584403961896896,-0.4103047549724579,0.7724677324295044,walking
1783088911670504200,2.683504150390625,0.1587080683134496,-0.8322427049271762,0.6480372072637081,0.151719644665718,-0.4039084017276764,0.7537432909011841,walking
1783088911680547800,2.6935478515625,0.2494546532958745,-0.8097066096007823,0.4246843789517879,0.1331552267074585,-0.3797963559627533,0.7518770694732666,walking
1783088911690592000,2.703592041015625,0.4046609970986843,-0.8567216048844158,0.358724590831995,0.1198039874434471,-0.3622378408908844,0.7458788156509399,walking
1783088911700636200,2.71363623046875,0.6313515915311873,-1.026660822916776,0.3034025165826082,0.1204889863729476,-0.347283124923706,0.7225497961044312,walking
1783088911710681000,2.72368115234375,0.514815170123428,-1.0255302114516496,0.1480325066506862,0.132437527179718,-0.3303949534893036,0.7129592299461365,walking
1783088911720725000,2.73372509765625,0.2709351020894944,-1.025238535028696,0.0093605335414409,0.1826914995908737,-0.2869436144828796,0.7357789278030396,walking
1783088911730769000,2.743768798828125,0.1720258150480687,-1.1073455942206083,0.0286082548469305,0.2648361623287201,-0.2281333059072494,0.7638632655143738,walking
1783088911740813000,2.75381298828125,0.2470988839499652,-1.3000582234665752,0.2032172182559967,0.3176286816596985,-0.1964545249938964,0.7698367834091187,walking
1783088911750858000,2.76385791015625,0.0016033435434103,-1.4774294911958277,0.0914794293016195,0.3143247365951538,-0.1685376763343811,0.7752141952514648,walking
1783088911760902000,2.77390185546875,-0.2564380824424326,-1.571610726802051,0.0020721300989389,0.2933914363384247,-0.1462325453758239,0.7980241179466248,walking
1783088911770946000,2.783946044921875,-0.4764529985032975,-1.6733597673140466,-0.1180477027535438,0.2921986281871795,-0.1389767527580261,0.8201294541358948,walking
1783088911780990200,2.793990234375,-0.5668753199674189,-1.6379311649277806,-0.3563520164817571,0.3034262657165527,-0.11994069814682,0.829200029373169,walking
1783088911791035000,2.804034912109375,-0.4406697374604642,-1.30420774436146,-0.6225134744286537,0.3159007728099823,-0.0932837799191474,0.8801630735397339,walking
1783088911801079000,2.8140791015625,-0.0982100527308881,-1.0062338286988437,-0.3849491654127836,0.3635175228118896,-0.1491741091012954,0.950028955936432,walking
1783088911811123200,2.824123291015625,-0.066651569776237,-1.114851147545129,-0.072763038393855,0.4253409504890442,-0.2488777935504913,0.9894549250602722,walking
1783088911821167000,2.8341669921875,-0.350811333489418,-1.446294055958837,0.1702981144726276,0.4666272103786468,-0.3870328962802887,0.963930070400238,walking
1783088911831212000,2.8442119140625,-0.5843668452553451,-2.158643284135312,0.5052086989969015,0.4855886697769165,-0.5597002506256104,0.86209636926651,walking
1783088911841256200,2.854256103515625,-0.7889718646079301,-2.7648928753748536,0.7215168694943189,0.4862854182720184,-0.7463321685791016,0.7053041458129883,walking
1783088911851300000,2.864300048828125,-0.7364183782890439,-2.6779315080195665,0.7255728668868542,0.4625779688358307,-0.9348357915878296,0.5624668598175049,walking
1783088911861344000,2.874343994140625,-0.6071121994182467,-2.1263024186313153,0.2489724227368831,0.4568967223167419,-1.0349022150039673,0.4729588627815246,walking
1783088911871389000,2.884388916015625,-0.9939391414016484,-1.3844922643013298,-0.8535288001924752,0.4612610936164856,-0.9568141102790833,0.4750502407550812,walking
1783088911881433000,2.89443310546875,-1.546832259376347,-0.2839755662526935,-2.1946663452833888,0.4812404811382293,-0.6566857099533081,0.6011428236961365,walking
1783088911891477000,2.90447705078125,-0.5171975352153182,0.446147219023481,-2.5061884554356335,0.5039370656013489,-0.3243634104728699,0.7758075594902039,walking
1783088911901521000,2.91452099609375,0.5339072624757886,0.6307008725374936,-2.9203339047163723,0.4408858716487884,0.0014082691632211,0.9220898151397704,walking
1783088911911566000,2.924566162109375,1.2934373440220952,0.6743385003425181,-3.204591575846076,0.3400575518608093,0.2894816100597381,1.002690076828003,walking
1783088911921610200,2.9346103515625,2.012009684497118,0.7021621806830167,-3.0433009436935183,0.278163194656372,0.5041164755821228,1.0541108846664429,walking
1783088911931654000,2.94465380859375,2.1100532946199175,0.9277150032572448,-2.8171710518836974,0.2833329141139984,0.623806893825531,1.134791135787964,walking
1783088911941698000,2.954697998046875,1.556121773508191,1.0895291478272526,-2.523655138543248,0.3547051846981048,0.7307033538818359,1.2375131845474243,walking
1783088911951743200,2.9647431640625,1.2903452232256531,0.4527892143212259,-1.6488362975627182,0.4555005133152008,0.7558587193489075,1.2450193166732788,walking
1783088911961787000,2.974786865234375,0.4301329997465014,-0.7032994410846382,-0.7995949654310941,0.4940669536590576,0.7108579277992249,1.1265596151351929,walking
1783088911971831000,2.9848310546875,-0.9572542553439736,-1.4058312587976456,-0.3519143262952566,0.4309854507446289,0.6537898182868958,0.9318873286247252,walking
1783088911981875000,2.994875,-0.8183364907801151,-1.6543856022529304,0.6802022778093815,0.3414097130298614,0.4468718469142914,0.7312062382698059,walking
1783088911991919900,3.004919921875,-0.207972303828597,-1.3951687027469275,1.078758528292179,0.2435768991708755,0.1137002855539321,0.5816838145256042,walking
1783088912001964000,3.014964111328125,0.1462612591944634,-0.9490432571638376,0.6162824710845947,0.1874345242977142,-0.1863512694835662,0.4893787503242492,walking
1783088912012008000,3.025008056640625,0.7289302144907415,-0.5929932193033397,0.0955477016538381,0.2311106324195861,-0.4165341556072235,0.4544844329357147,walking
1783088912022052000,3.035052001953125,1.244230683913082,-0.0632961949337273,-0.4387076436072588,0.3276310563087463,-0.5518911480903625,0.4860837757587433,walking
1783088912032097000,3.045096923828125,1.5653636491060257,0.5527175422120839,-0.6844494138598441,0.4248574674129486,-0.5877407789230347,0.593062162399292,walking
1783088912042141000,3.055140869140625,1.9613428887076672,1.038494176312536,-0.3971551515132188,0.5014047622680664,-0.5818598866462708,0.7587853670120239,walking
1783088912052185000,3.06518505859375,2.3263944906041023,1.4887345829337837,0.0933808790087699,0.5457860231399536,-0.5412381291389465,0.9687170386314392,walking
1783088912062229000,3.07522900390625,2.6456436878770586,1.899842271953821,0.7132400395363568,0.5608271360397339,-0.4903808534145355,1.1960676908493042,walking
1783088912072274000,3.08527392578125,2.9815523435279725,2.1491814821764827,1.090209896633029,0.5504394769668579,-0.3992336392402649,1.4330296516418457,walking
1783088912082318000,3.095318115234375,3.1461008084326982,2.5356226397126913,1.162036530959606,0.4749404788017273,-0.2670853435993194,1.670377254486084,walking
1783088912092362000,3.105362060546875,3.2288337444379924,3.0145103180170056,1.006808559846878,0.3194350302219391,-0.1010441854596138,1.9178800582885744,walking
1783088912102406100,3.11540625,3.263777924308181,3.2596406783729788,0.8928197770953178,0.1150853708386421,0.0498246923089027,2.145869016647339,walking
1783088912112451000,3.125451171875,2.8806133042246103,3.296401552276313,0.7409615746766328,-0.0776049792766571,0.191007912158966,2.3789963722229004,walking
1783088912122495000,3.135494873046875,2.3139123179107903,3.038048429992795,0.7895341746658087,-0.1860006600618362,0.259904533624649,2.579059362411499,walking
1783088912132539100,3.1455390625,1.815967472437024,2.4868168154895303,0.9977303503781556,-0.1866126507520675,0.2264938503503799,2.695509910583496,walking
1783088912142583000,3.1555830078125,1.395241621852666,1.9291034377515317,0.9471522557854652,-0.1284333616495132,0.1406886726617813,2.715909481048584,walking
1783088912152628000,3.1656279296875,1.16456999495998,1.509472250536084,0.9594494273006916,-0.0509620085358619,0.0319696478545665,2.668424129486084,walking
1783088912162672000,3.175672119140625,0.9489989065654576,1.163256866534799,0.969637059316039,0.0076755229383707,-0.0569821931421756,2.5919761657714844,walking
1783088912172716000,3.185716064453125,0.7277575174495577,0.9102328303195536,0.7124497659415007,0.0112793119624257,-0.0799764543771743,2.5093066692352295,walking
1783088912182760000,3.195760009765625,0.7665517968766391,0.7108581128358841,0.4943213942795991,-0.0188727155327796,-0.0748355910181999,2.423929452896118,walking
1783088912192804900,3.205804931640625,0.9778536835193632,0.469060111773014,0.1965016462653875,-0.0546323098242282,-0.0602590516209602,2.334930419921875,walking
1783088912202849000,3.21584912109375,1.0645987777754664,0.2355434707127511,-0.1653530592858791,-0.0691400319337844,-0.0346788167953491,2.243257522583008,walking
1783088912212893000,3.225892822265625,0.9884816066481172,-0.2455928633011877,-0.5607721807867289,-0.0623516291379928,-0.0022569643333554,2.1198177337646484,walking
1783088912222936800,3.235936767578125,0.989213866445422,-0.840415489988774,-0.8441676821291446,-0.0367441922426223,0.0205020774155855,1.9797248840332031,walking
1783088912232982000,3.24598193359375,1.1179305549904703,-1.2659297438934445,-0.9190718242049216,-0.0032261773012578,0.0089713893830776,1.845592379570007,walking
1783088912243026000,3.25602587890625,1.3290429104104635,-1.5299465910270809,-0.7813853550016879,0.0300161316990852,-0.0351210497319698,1.7089478969573977,walking
1783088912253069800,3.26606982421875,1.449472393734008,-1.6191602673538028,-0.6263672272473574,0.063388206064701,-0.0957303270697593,1.565073847770691,walking
1783088912263114000,3.276114013671875,1.4532976511105895,-1.5384589833065867,-0.4204331512480974,0.0840887054800987,-0.1522549986839294,1.4280872344970703,walking
1783088912273159000,3.286158935546875,1.3752109334759413,-1.319541653224081,-0.1259188745200634,0.07550960034132,-0.1882564127445221,1.3144354820251465,walking
1783088912283202800,3.296202880859375,1.3542698522560297,-0.9906021059334278,0.1973562172681093,0.0527495965361595,-0.2080549001693725,1.2396687269210815,walking
1783088912293247000,3.3062470703125,1.2934712462916969,-0.7847710519172251,0.3947983592540025,0.0252849478274583,-0.2069470286369323,1.185390830039978,walking
1783088912303291000,3.316290771484375,1.2611186903499063,-0.570921234357357,0.4107242426604032,-0.0023867490235716,-0.1748194843530655,1.1613397598266602,walking
1783088912313335800,3.326335693359375,1.2494175850316882,-0.2918058945521712,0.3416992217510938,-0.0111914258450269,-0.1359991133213043,1.1925456523895264,walking
1783088912323380000,3.3363798828125,1.3063184529051184,-0.2030507756479084,0.3114572282224893,0.003163079963997,-0.1057013198733329,1.2609314918518066,walking
1783088912333423900,3.346423828125,1.307164256079495,-0.2992921586543321,0.3259276521235704,0.0313656888902187,-0.0908315554261207,1.3385298252105713,walking
1783088912343468000,3.356468017578125,1.3182060207061468,-0.4844781917877495,0.413055900478363,0.0668995603919029,-0.101024329662323,1.3934576511383057,walking
1783088912353513000,3.366512939453125,1.36967916444242,-0.7627109035395085,0.5967191079586744,0.0810254961252212,-0.1257690787315368,1.4037052392959597,walking
1783088912363556900,3.376556884765625,1.354935038166493,-0.8803906497634947,0.6368032810658216,0.0643638372421264,-0.1414486169815063,1.392302632331848,walking
1783088912373601000,3.38660107421875,1.1559553113497794,-0.9837832196988164,0.6482517267972231,0.0162804629653692,-0.1430632919073104,1.3509879112243652,walking
1783088912383645000,3.39664501953125,0.8350504558242857,-1.1569593738257884,0.6128630180299282,-0.0472763441503047,-0.1383174061775207,1.2697566747665403,walking
1783088912393689900,3.40668994140625,0.7070154659330844,-1.2996167633093894,0.5506792413175106,-0.0983949229121208,-0.1364507973194122,1.1729248762130735,walking
1783088912403734000,3.416734130859375,0.9809677238866686,-1.2214726163990794,0.6104360831439495,-0.1246174722909927,-0.2037316113710403,1.0838048458099363,walking
1783088912413778000,3.42677783203125,1.1907369941346346,-0.9174154353000225,0.3754676358401775,-0.1118867620825767,-0.3132040500640869,1.032800793647766,walking
1783088912423821800,3.43682177734375,0.9750893333725632,-0.5644185744650662,-0.2086643777459859,-0.0864462032914161,-0.3811177611351013,1.038388729095459,walking
1783088912433867000,3.446866943359375,0.8925589342020451,-0.2925672343134879,-0.674997694903612,-0.0428209565579891,-0.4067754447460174,1.0996819734573364,walking
1783088912443911000,3.456910888671875,1.0946003866769374,-0.1102617250524461,-1.1041279473483565,0.0279608890414237,-0.3659372627735138,1.192989706993103,walking
1783088912453954800,3.466954833984375,1.2124538820326327,0.0818862560480833,-1.6101052926301955,0.0884263589978218,-0.2347648590803146,1.2702327966690063,walking
1783088912463998700,3.476998779296875,1.2258783040121195,0.223369779446721,-1.762413576903939,0.1045315936207771,-0.0615959763526916,1.3260337114334106,walking
1783088912474044000,3.4870439453125,1.3245669340401889,0.0766397336967289,-1.3577087406635284,0.0782568454742431,0.0853324830532074,1.3530941009521484,walking
1783088912484088000,3.497088134765625,1.0998514390729368,-0.4374054749675095,-0.916143369537592,0.0413570553064346,0.1732185781002044,1.330205321311951,walking
1783088912494131700,3.507131591796875,0.7494299816839397,-0.9624759355150164,-0.69568450910151,0.0255128443241119,0.2261124104261398,1.2680200338363647,walking
1783088912504175900,3.51717578125,0.3905146905854344,-1.3489851898513734,-0.6215566120952367,0.0449902713298797,0.2466553896665573,1.1802431344985962,walking
1783088912514221000,3.527220947265625,0.198464470770955,-1.5367502796925605,-0.4457441181153059,0.0874253436923027,0.2189286947250366,1.088864803314209,walking
1783088912524264700,3.5372646484375,0.00194426593557,-1.484086903258413,-0.1050859298497438,0.1406210064888,0.1283353269100189,0.995313823223114,walking
1783088912534308900,3.547308837890625,-0.3822213478840887,-1.4873819992810486,0.2196504666626453,0.2008103132247924,-0.0150599107146263,0.8974453210830688,walking
1783088912544353000,3.55735302734375,-0.6348385568641126,-1.5898443026289344,0.4772510170131921,0.2631059288978576,-0.1830968558788299,0.7976923584938049,walking
1783088912554397700,3.567397705078125,-0.6559995644450187,-1.68489282258898,0.7603390598416327,0.3046573400497436,-0.3860805928707123,0.696517825126648,walking
1783088912564441900,3.57744189453125,-0.437799734982103,-1.6299921886220574,0.8561959735751151,0.3350113928318023,-0.5912708640098572,0.6184099316596985,walking
1783088912574486000,3.587486083984375,-0.2019230867922306,-1.2254919350430369,0.6091062958449125,0.352417528629303,-0.758353054523468,0.5961613655090332,walking
1783088912584530000,3.597530029296875,0.0601018558718264,-0.6472919418543577,0.1846592327803373,0.3740342557430267,-0.8583582043647766,0.6330077052116394,walking
1783088912594574800,3.607574951171875,0.4943237323671579,-0.1337397774040699,-0.1118897646456956,0.3977411985397339,-0.9037022590637208,0.7144596576690674,walking
1783088912604618800,3.61761865234375,1.0761739186264574,0.1650640132114291,-0.2733627676278352,0.4174326956272125,-0.9281855821609496,0.7991824746131897,walking
1783088912614663000,3.627662841796875,1.6659340012274682,0.1133764960721135,-0.3922568580776452,0.4033813178539276,-0.9518605470657348,0.8400633335113525,walking
1783088912624707000,3.63770703125,2.0566288706853983,-0.1593408132590353,-0.6499065082669258,0.360434740781784,-0.9501101970672609,0.8536655902862549,walking
1783088912634751700,3.647751708984375,2.4211970729790626,-0.4097429765380919,-0.9394166930973528,0.3123079836368561,-0.9024806022644044,0.8699132800102234,walking
1783088912644796000,3.6577958984375,2.7357278634279965,-0.5596475606709719,-1.1873755548775196,0.280481606721878,-0.8069392442703247,0.8989207148551941,walking
1783088912654840000,3.667840087890625,2.90942731077671,-0.3585055412538349,-1.4576502933621405,0.2590226531028747,-0.6544205546379089,0.9449683427810668,walking
1783088912664884000,3.677884033203125,2.8709570026069877,0.0298331204667687,-1.6143348930239676,0.2108863294124603,-0.4516180157661438,1.01484477519989,walking
1783088912674929000,3.687928955078125,2.6558085235387083,0.4442481804691255,-1.491210033136606,0.151491180062294,-0.2379318177700042,1.107492446899414,walking
1783088912684973000,3.69797314453125,2.0160988535068927,0.5058924434773624,-1.257304831150174,0.1212638467550277,-0.0424483753740787,1.195077657699585,walking
1783088912695017000,3.708016845703125,1.2056360187113284,0.2734559988692402,-1.1776344975858926,0.1343397051095962,0.1230865269899368,1.2365729808807373,walking
1783088912705060900,3.718060791015625,0.5386345832586288,0.267345845425874,-1.388769064837694,0.1650833934545517,0.2919215857982635,1.2652454376220703,walking
1783088912715106000,3.72810595703125,0.0601950871132314,0.2036852741591632,-1.625369497257471,0.2017034590244293,0.4191434383392334,1.2955076694488523,walking
1783088912725150000,3.73814990234375,-0.0859450299195945,0.1824582156047225,-1.8090028941214085,0.278190553188324,0.5175738334655762,1.3189117908477783,walking
1783088912735193900,3.74819384765625,-0.0119771457806229,0.1561801572710275,-1.735656502881646,0.3723804354667663,0.576246976852417,1.313016057014465,walking
1783088912745237800,3.75823779296875,0.1468396436043083,0.0024808570303022,-1.3797633360832928,0.4441579580307007,0.5689501166343689,1.2599997520446775,walking
1783088912755283000,3.768282958984375,0.4324038672879338,-0.1853095133826136,-0.8842623766303062,0.4633329808712005,0.4930364489555359,1.167937994003296,walking
1783088912765327000,3.7783271484375,0.7936436558112502,-0.3059935559891164,-0.4432739286094904,0.4328754842281341,0.3579332232475281,1.075525164604187,walking
1783088912775370800,3.788370849609375,0.9963897494241596,-0.1607441041857004,-0.1692383762866258,0.3723823130130768,0.175049677491188,1.014169216156006,walking
1783088912785415000,3.798414794921875,1.1441460694819687,-0.006181465113908,0.0423193848133087,0.3244876563549042,-0.0403548702597618,0.9899998903274536,walking
1783088912795460000,3.808460205078125,1.0771451017461715,0.1648221672795712,0.3194523186296224,0.3214769661426544,-0.2611876428127289,0.9853971004486084,walking
1783088912805503700,3.818503662109375,0.79328037545681,0.3398476025350391,0.7824228813558817,0.3457978963851928,-0.4905999302864074,1.0054593086242676,walking
1783088912815548000,3.8285478515625,0.4992172034971415,0.3781431386597454,1.318946756070852,0.3793718516826629,-0.7128170132637024,1.0473119020462036,walking
1783088912825591800,3.838591796875,0.0812765997171402,0.3496691777169704,1.6538813059926032,0.4262906014919281,-0.8780657649040222,1.0845510959625244,walking
1783088912835636700,3.84863671875,-0.3409941422216594,0.3053689943499863,1.7483114017933603,0.4762722849845886,-0.9431965351104736,1.1067909002304075,walking
1783088912845681000,3.858680908203125,-0.6146037242174148,0.3090950291357934,1.519976108893752,0.518987774848938,-0.880618691444397,1.1281498670578003,walking
1783088912855724800,3.868724853515625,-0.7539533043272793,0.4109907846421003,1.157784718734026,0.5451000928878784,-0.7295958995819092,1.146087646484375,walking
1783088912865769000,3.87876904296875,-0.7569030940435826,0.4484555690310895,0.7596651061028241,0.5464065074920654,-0.5375326871871948,1.159973382949829,walking
1783088912875814000,3.88881396484375,-0.6906582053720951,0.3189261027984321,0.2835246806800365,0.526715874671936,-0.3272481560707092,1.1617339849472046,walking
1783088912885857800,3.89885791015625,-0.6954908862255513,0.1261987143747508,-0.386231606438756,0.4862440228462219,-0.0809032768011093,1.1402134895324707,walking
1783088912895902000,3.90890185546875,-0.726004974693805,-0.0989316450037062,-1.079691425228119,0.4315325617790222,0.1881492286920547,1.0958226919174194,walking
1783088912905946000,3.918946044921875,-0.7642915968596935,-0.3272279210671782,-1.6104361320197582,0.377747893333435,0.4585342109203338,1.0459176301956177,walking
1783088912915990800,3.92899072265625,-0.7220214580155908,-0.3928358270093798,-1.843843905878067,0.3265376687049866,0.6927033066749573,0.998452365398407,walking
1783088912926035000,3.939034912109375,-0.5707726196669042,-0.4318281132265925,-1.7270669537127017,0.2546927034854889,0.838930606842041,0.9614658951759338,walking
1783088912936078800,3.949078857421875,-0.370802274377644,-0.5476837127633393,-1.3773001608401536,0.1649787873029709,0.8846336603164673,0.9330342411994934,walking
1783088912946123000,3.959123046875,-0.1758019725859165,-0.6191646023921669,-0.8768985698640346,0.1081037074327468,0.8169839382171631,0.9294496178627014,walking
1783088912956168000,3.96916796875,0.0387030940122902,-0.5220158952824772,-0.3082651541829109,0.1250251829624176,0.6518783569335938,0.9460048675537108,walking
1783088912966211800,3.9792119140625,0.0759589118257164,-0.4466339065618813,0.0346457814455032,0.1974240988492965,0.427476704120636,0.9791538715362548,walking
1783088912976256000,3.989256103515625,0.0754873487912118,-0.3888954188205301,0.2395148585617542,0.2868591845035553,0.2028553336858749,1.0123211145401,walking
1783088912996342800,4.0093427734375,0.03683846918419,-0.303752499064058,0.3188695503056049,0.3828579485416412,-0.1117976084351539,1.0722341537475586,walking
1783088913006388000,4.019387939453125,-0.0037409400939941,-0.2788892759643495,0.5168015216350555,0.3568767607212066,-0.2341128885746002,1.0946359634399414,walking
1783088913016431900,4.029431884765625,-0.0667281421437859,-0.30795433466807,0.6939391267389059,0.3076170682907104,-0.3408795595169067,1.1266024112701416,walking
1783088913026476000,4.03947607421875,-0.1610283279545605,-0.3277627585962414,0.7361562202215194,0.2804718017578125,-0.4105552732944488,1.1610057353973389,walking
1783088913036520000,4.04952001953125,-0.1647995170563459,-0.3503688504189252,0.681812635615468,0.2767159342765808,-0.4550143480300903,1.1832101345062256,walking
1783088913046564900,4.05956494140625,-0.1523806188575923,-0.3988470501229166,0.5637883137375116,0.2884694039821625,-0.4826307892799377,1.1800061464309692,walking
1783088913056609000,4.069609130859375,-0.1678949988536536,-0.4529848830237984,0.4665414069503545,0.3073983490467071,-0.5133381485939026,1.1660001277923584,walking
1783088913066653000,4.07965283203125,-0.2266799269080162,-0.4879008597128093,0.577202506583929,0.3299561738967895,-0.5384289622306824,1.1536650657653809,walking
1783088913076696800,4.08969677734375,-0.2994819821380078,-0.5685869461908937,0.6383925960838794,0.3430072665214538,-0.5774857997894287,1.1376224756240845,walking
1783088913086742000,4.099741943359375,-0.4602580888971686,-0.738732500450313,0.6143278298854827,0.3604846596717834,-0.6205942034721375,1.1182465553283691,walking
1783088913096786000,4.109785888671875,-0.6090538350053131,-0.9541226793199776,0.5503589233219623,0.3915334045886993,-0.6642135977745056,1.0654611587524414,walking
1783088913106829800,4.119829833984375,-0.6860400440521538,-1.340434511388093,0.5025935480624437,0.4176533222198486,-0.7419350147247314,0.983889102935791,walking
1783088913116874000,4.1298740234375,-0.466191862860322,-1.7056616159819065,0.6673690997213125,0.4161795377731323,-0.8545920848846436,0.8746475577354431,walking
1783088913126919000,4.1399189453125,-0.0486376280494034,-1.9547282928735017,0.8578665371358394,0.4003609716892242,-0.939123034477234,0.7705631256103516,walking
1783088913136962800,4.149962890625,0.2738805078916251,-2.041214297802001,0.7763210573494433,0.3586183190345764,-0.9528295397758484,0.6773250699043274,walking
1783088913147007000,4.160007080078125,0.3574024023175239,-2.0465048054255544,0.3557306697130203,0.3354594111442566,-0.9266705513000488,0.606733500957489,walking
1783088913157051000,4.17005078125,0.3410341819711029,-2.0119218600831923,0.0450385806441307,0.3624457716941833,-0.9272801280021667,0.5987392663955688,walking
1783088913167095800,4.180095703125,0.5566361038953066,-1.700743887193501,0.1912386111706495,0.4102327525615692,-0.9501582384109496,0.6459921002388,walking
1783088913177140000,4.190139892578125,1.0220265872448682,-1.2412263875305651,0.2336848372340202,0.4683796763420105,-0.9757677316665648,0.7106853127479553,walking
1783088913187183900,4.200183837890625,1.4992358109429478,-1.0084772237114608,0.3344815454572439,0.5211495757102966,-1.0123591423034668,0.7821564078330994,walking
1783088913197228000,4.21022802734375,1.4855493770264088,-0.9504738014236092,0.504499089422822,0.5760056376457214,-1.0276975631713867,0.8698859810829163,walking
1783088913207273000,4.22027294921875,1.187150367819518,-0.8822571742877363,0.593862549483776,0.6377894282341003,-1.0200189352035522,0.9768868088722228,walking
1783088913217316900,4.23031689453125,0.9121727123409508,-0.7537655997354537,0.7699076831758022,0.6812397241592407,-0.990736186504364,1.115708827972412,walking
1783088913227361000,4.240361083984375,0.72304422519207,-0.3934589273437857,0.7523346170842647,0.6943963766098022,-0.9766241312026978,1.2369427680969238,walking
1783088913237405000,4.250405029296875,0.4074743009537458,-0.2002601220160722,0.7347662271678447,0.6708202362060547,-0.8994073271751404,1.3738303184509275,walking
1783088913247449900,4.260449951171875,-0.1619979036390781,0.2434245793513953,0.2545253806889057,0.638003945350647,-0.7601168155670166,1.468287229537964,walking
1783088913257494000,4.270493896484375,-0.2784706121608615,0.3442529978871345,-0.3514911324471235,0.5998320579528809,-0.6434378623962402,1.4742106199264526,walking
1783088913267538000,4.280537841796875,-0.0365299877569079,-0.1856586190812289,-0.7125140633493662,0.5893591642379761,-0.509415328502655,1.4538981914520264,walking
1783088913277581800,4.290581787109375,0.1024903603985905,-0.38703773518987,-1.39647949308455,0.63502037525177,-0.3247250616550445,1.4486160278320312,walking
1783088913287627000,4.300626953125,0.957005541279912,-0.2025871036589145,-2.289067214989662,0.7013900876045227,-0.1699067056179046,1.474319577217102,walking
1783088913297671000,4.3106708984375,2.3246286499753595,0.0382907868843525,-2.8012387387365103,0.7389110922813416,0.0089769996702671,1.5127123594284058,walking
1783088913307714800,4.32071484375,2.362259292450547,0.3098019352961331,-3.284171308517456,0.7387277483940125,0.3297640681266784,1.5972131490707395,walking
1783088913317758700,4.3307587890625,1.0764742167472838,0.8096267492976039,-3.565270807877183,0.746228814125061,0.7155359983444214,1.6950733661651611,walking
1783088913327804000,4.340803955078125,0.0446264927119016,1.0944029644086957,-3.0630566145211455,0.7581162452697754,0.920026421546936,1.7515898942947388,walking
1783088913337848000,4.35084814453125,0.0567252190455794,0.8794669590473174,-1.3972761964201927,0.7241255640983582,0.8968656659126282,1.7968199253082275,walking
1783088913348521000,4.36152099609375,-0.2986608750134706,1.3886015993162988,1.296236911612749,0.616151750087738,0.7593594789505005,1.863765001296997,walking
1783088913358563800,4.371563720703125,-0.378892641852796,1.3967185625374317,1.3169745792150496,0.4946567714214325,0.5734468698501587,1.9047132730484009,walking
1783088913368608000,4.38160791015625,-0.2587650640852749,1.255325201640278,1.7463789724260568,0.3742111027240753,0.372041791677475,1.9156956672668457,walking
1783088913378652000,4.39165185546875,-0.0085768358178436,1.087714207359776,1.5861270356714725,0.2622334361076355,0.2700658738613128,1.895479440689087,walking
1783088913388696800,4.40169677734375,0.0181023506626486,0.851784440743178,0.664960285013914,0.2035839408636093,0.2274443060159683,1.8193179368972776,walking
1783088913398741000,4.411740966796875,0.1983748927913606,0.3174010851882398,-0.2699900763243437,0.2321367561817169,0.1820922642946243,1.7165864706039429,walking
1783088913408785000,4.421784912109375,0.6868398161277175,0.043971243673563,-0.881525060620904,0.295439600944519,0.1093586534261703,1.6003748178482056,walking
1783088913418829000,4.4318291015625,0.8826908895298838,-0.0130788964774459,-1.2817425223141907,0.3358850181102752,0.0152127128094434,1.5049407482147217,walking
1783088913428874000,4.4418740234375,1.1877495027564466,-0.1494569134306162,-1.2952993385016918,0.3242758512496948,-0.157180368900299,1.429310321807861,walking
1783088913438918000,4.45191796875,1.7636629924431442,-0.3188627552386373,-0.7967699711382389,0.2677103281021118,-0.3234569728374481,1.34498393535614,walking
1783088913448962000,4.461962158203125,1.8938661201536655,-0.4663702881671488,-0.4949620302706956,0.206642284989357,-0.4342148005962372,1.256782054901123,walking
1783088913459006000,4.472005859375,1.8416314905256033,-0.4424098591260612,-0.405465299218893,0.1585690379142761,-0.519585132598877,1.205000638961792,walking
1783088913469051000,4.48205078125,1.9998286867074668,-0.1320183604389429,-0.1804097586423158,0.127187043428421,-0.5751778483390808,1.1929030418395996,walking
1783088913479095000,4.492094970703125,2.041467541910708,0.225752802125737,0.0293219560742378,0.1088596954941749,-0.579945981502533,1.1738237142562866,walking
1783088913489139000,4.502138916015625,1.9171072950094936,0.4378508075822144,0.1476940684765577,0.1122049316763877,-0.5380683541297913,1.1762712001800537,walking
1783088913499182800,4.512182861328125,1.918281891746819,0.6181096865117549,0.3621013737887144,0.1353121101856231,-0.4478857517242431,1.186339020729065,walking
1783088913509228000,4.52222802734375,1.625270713058114,0.6098707774113863,0.5372971971750259,0.1619795709848404,-0.3256770372390747,1.177604913711548,walking
1783088913519272000,4.53227197265625,1.2168028710223733,0.3460114589270204,0.6991402025133371,0.165873646736145,-0.2228785008192062,1.1757090091705322,walking
1783088913529315800,4.54231591796875,1.1145640011668203,0.1755863570738583,1.0465548793017865,0.1373569816350937,-0.1439374238252639,1.1680806875228882,walking
1783088913539359700,4.55235986328125,1.0924490538619458,0.0101535836152732,1.139324932935834,0.0937088429927825,-0.0625778585672378,1.1453468799591064,walking
1783088913549405000,4.562405029296875,0.9599855800040066,-0.063168184639886,0.8266863859742879,0.0522090531885623,0.0329503640532493,1.1145073175430298,walking
1783088913559448800,4.57244873046875,1.0581250517167151,-0.2281840478606522,0.3639344344347715,0.0068564852699637,0.1227313801646232,1.0780137777328491,walking
1783088913569492700,4.58249267578125,1.212882336577773,-0.3416458841286599,-0.0813502494752407,-0.0415481813251972,0.1904514133930206,1.0619406700134275,walking
1783088913579537000,4.592536865234375,1.4133622388243674,-0.29341427959688,-0.3509925352752208,-0.0936947390437126,0.2125255465507507,1.0563908815383911,walking
1783088913589582000,4.60258203125,1.6737227554075418,-0.3068791066519916,-0.3304927680820226,-0.1348568946123123,0.2297961711883545,1.048528790473938,walking
1783088913599625700,4.612625732421875,1.532950010626763,-0.4617613330669701,-0.41115912694633,-0.1626384705305099,0.2704101800918579,1.0222759246826172,walking
1783088913609670000,4.622669921875,1.0573409156017004,-0.7675529367431998,-0.5289198294520377,-0.1588431894779205,0.2687691450119018,0.9751113653182985,walking
1783088913619714000,4.632714111328125,0.9457048334561288,-1.2009782560333608,-0.2683779649525881,-0.115168422460556,0.2358820289373397,0.9037466049194336,walking
1783088913629758700,4.6427587890625,0.9738146372616292,-1.522509572894126,0.0534784922093153,-0.0559421703219413,0.2153869718313217,0.8159735798835754,walking
1783088913639803000,4.652802978515625,0.919820889006555,-1.6748229717344043,0.1427542739868164,-0.0165353752672672,0.2286953181028366,0.7479287385940552,walking
1783088913649846800,4.6628466796875,0.8151426631748676,-1.66118446861282,0.1295809041589498,-0.0169849339872598,0.2245187908411026,0.7074949741363525,walking
1783088913659891000,4.672890869140625,0.8823775857970118,-1.585444460234791,0.249535901838541,-0.0594983026385307,0.1898140609264373,0.6852852702140808,walking
1783088913669935900,4.682935791015625,1.1246198234960436,-1.505605492105335,0.3683066581696271,-0.1090857982635498,0.1887413561344146,0.676983654499054,walking
1783088913679979800,4.692979736328125,1.0893009650945662,-1.3520935311302542,0.1353986505270004,-0.1478819251060485,0.2123654633760452,0.6921713948249817,walking
1783088913690024000,4.70302392578125,0.968827058107406,-1.1126432622373104,-0.0448655621647834,-0.1704325079917907,0.2503457963466644,0.7188201546669006,walking
1783088913700068000,4.713068115234375,0.927930253443122,-0.9558104862764476,-0.0472322912961244,-0.1843243539333343,0.2810280919075012,0.7635983228683472,walking
1783088913710112800,4.72311279296875,0.8899439293980598,-0.792739400447905,0.0486976876735687,-0.1735877394676208,0.2836670577526092,0.8141155242919922,walking
1783088913720157000,4.733156982421875,1.0063041174560785,-0.8258920207262038,0.1953337715297937,-0.1410604268312454,0.2642989456653595,0.8527668714523315,walking
1783088913730201000,4.743201171875,1.0613955978199838,-0.92851185272336,0.2345084285765886,-0.0995824038982391,0.2454748451709747,0.8862786889076233,walking
1783088913740245000,4.753244873046875,1.1148794968567788,-1.0734418633140623,0.1316103641599416,-0.0661181882023811,0.2181361615657806,0.9161345958709716,walking
1783088913750290000,4.7632900390625,1.2008087446853517,-1.1431725482746955,0.1534352424770593,-0.0396710857748985,0.1766815930604934,0.9306758046150208,walking
1783088913760334000,4.773333984375,1.3327715755447744,-1.194394785989821,0.2633171744316816,-0.0196734108030796,0.1139955669641494,0.9381507635116576,walking
1783088913770378000,4.7833779296875,1.4283397354647516,-1.2148146198146044,0.4317150082409381,-0.0208077002316713,0.0365341529250144,0.921252965927124,walking
1783088913780422000,4.793421875,1.4529074827492237,-1.343058137889951,0.5404916093021631,-0.0623655319213867,-0.031522661447525,0.8864994645118713,walking
1783088913790466800,4.803466796875,1.3693033168673514,-1.455644506497681,0.51528234924376,-0.1216394752264022,-0.0988023579120636,0.8464258313179016,walking
1783088913800511000,4.813510986328125,1.2884426044747233,-1.4689887028478086,0.399499084290862,-0.1699377596378326,-0.1739050894975662,0.8028770089149475,walking
1783088913810555000,4.823554931640625,1.3537363299012184,-1.397510589697957,0.3096808661997318,-0.1661878824234008,-0.2163617312908172,0.7841817140579224,walking
1783088913820598800,4.833598876953125,1.3877610568389296,-1.201671791255474,0.0779857414782047,-0.1132490336894989,-0.230867713689804,0.7942016124725342,walking
1783088913830644000,4.84364404296875,1.375980894935131,-0.958118032566458,-0.1326180798977613,-0.0355755127966403,-0.196822315454483,0.8311203718185425,walking
1783088913840687900,4.85368798828125,1.3389153389967978,-0.7446290111429988,-0.3198363495111465,0.0095818461850285,-0.1342244446277618,0.8714100122451782,walking
1783088913850731800,4.863731689453125,1.2918154419086874,-0.5323064031504094,-0.3124170131653547,0.0036597745493054,-0.0791193842887878,0.9259406328201294,walking
1783088913860776000,4.87377587890625,1.4890728749774396,-0.2065983851268887,-0.1212935528069734,-0.0343211628496646,-0.0342616364359855,0.9907824993133544,walking
1783088913870821000,4.883821044921875,1.6858695586666463,0.1435350491009652,-0.0201706813693046,-0.082404538989067,-0.0035082516260445,1.054546594619751,walking
1783088913880864800,4.89386474609375,1.7053991656534373,0.2406336334586143,-0.1711760663509368,-0.0897266343235969,-0.016306871548295,1.0918049812316897,walking
1783088913890909000,4.903908935546875,1.646856960313767,0.0575141774661839,-0.3961228858560323,-0.0356837213039398,-0.079328641295433,1.0924839973449707,walking
1783088913900952800,4.913952880859375,1.5954111429758369,-0.2204781496584415,-0.6143114632725716,0.0532980822026729,-0.1559110432863235,1.047782063484192,walking
1783088913910997800,4.923997802734375,1.5043031773351132,-0.5611795925438404,-0.7756757451832293,0.1346060335636139,-0.2262568175792694,0.9792341589927672,walking
1783088913921042000,4.9340419921875,1.3995160843014716,-0.8508513976767659,-0.7177455342620611,0.1860223412513733,-0.2742544412612915,0.8911525011062622,walking
1783088913931085800,4.9440859375,1.2788498696126045,-1.0203573388583955,-0.594457592767477,0.2149999588727951,-0.3081877827644348,0.7852813601493835,walking
1783088913941130000,4.9541298828125,1.3035101174861192,-1.1030141408875584,-0.4345318192273378,0.2285202890634536,-0.3175565004348755,0.6683057546615601,walking
1783088913951175000,4.9641748046875,1.2461647207155824,-0.9570327215477824,-0.4532043709933757,0.205734446644783,-0.2880873680114746,0.5402514338493347,walking
1783088913961218800,4.97421875,1.0847698975361884,-0.8633170576266944,-0.5914437979042529,0.1396291851997375,-0.2100402265787124,0.4408713281154632,walking
1783088913971263000,4.984262939453125,0.9505928977586328,-0.6835812527231871,-0.7972551243066788,0.0871694535017013,-0.0976101383566856,0.3760983049869537,walking
1783088913981307000,4.994306884765625,0.8452617609761655,-0.5951711478643119,-1.1092916137218474,0.0708506628870964,0.0240787435322999,0.3227706253528595,walking
1783088913991351800,5.004351806640625,0.7406640530347823,-0.6860735079303384,-1.4843477461516856,0.0934907272458076,0.1514859795570373,0.2765951454639435,walking
1783088914001396000,5.01439599609375,0.6334754518173634,-0.7272938454605639,-1.8925749112993475,0.1530952006578445,0.2689175009727478,0.2631880044937134,walking
1783088914011439900,5.02443994140625,0.6221696294270456,-0.5348443971954285,-2.0894769550591707,0.2464716881513595,0.3386496901512146,0.2770895063877105,walking
1783088914021483800,5.03448388671875,0.7413558346912265,-0.2267629290163517,-1.8598767567902803,0.3267026245594024,0.3690789639949798,0.3011657893657684,walking
1783088914031529000,5.044529052734375,0.7898376876570284,0.0350562619425356,-1.3689584489524365,0.3460488617420196,0.3932904005050659,0.3262087702751159,walking
1783088914041572900,5.05457275390625,0.70290218539536,0.1570915730275213,-0.8023188374370336,0.292644739151001,0.4042597115039825,0.3445140123367309,walking
1783088914051617000,5.064616943359375,0.5014036076255143,0.1870356065228581,-0.293585471445322,0.2077753543853759,0.4008173942565918,0.3836949169635772,walking
1783088914061661000,5.074660888671875,0.1916314098805189,0.2962137741222977,0.0533522354811429,0.1446509808301925,0.3717868030071258,0.4606964886188507,walking
1783088914071705900,5.084705810546875,0.0171440270245075,0.4484283887632191,0.226128138244152,0.1383964419364929,0.3217887878417969,0.5556761622428894,walking
1783088914081750000,5.09475,-0.0491311106547713,0.7026674998566508,0.1844634179472923,0.1804560124874115,0.2475755363702774,0.651043713092804,walking
1783088914091794000,5.1047939453125,0.0767616065107286,0.977706968525052,0.0747872376978397,0.2263335883617401,0.1452174186706543,0.7273821830749512,walking
1783088914101837800,5.114837890625,0.2575789230406284,1.108506893084943,0.0900327376246452,0.2774026393890381,0.0488410741090774,0.7810707092285156,walking
1783088914111883000,5.124883056640625,0.2828786378614604,1.1023226514920592,0.1239694940179586,0.3341763019561767,-0.0023286291398108,0.8284077048301697,walking
1783088914121927000,5.134927001953125,0.1396745742805302,1.0995162157692016,0.2321498827517032,0.3888312876224518,-0.026640361174941,0.8733069896697998,walking
1783088914131970800,5.144970703125,0.0084724255952984,1.1375323504306376,0.4643786759585142,0.4414916038513183,-0.038583505898714,0.9043758511543274,walking
1783088914142015000,5.155014892578125,-0.1063817418139427,1.1355620732709766,0.6830337018430233,0.4899209141731262,-0.0443460568785667,0.9113405346870422,walking
1783088914152060000,5.165059814453125,-0.160128456505388,1.033583023395389,0.8221627710700035,0.5164049863815308,-0.075504295527935,0.9089057445526124,walking
1783088914162103800,5.175103759765625,-0.1568980962820351,1.0238066025294363,0.9711468793570994,0.5231395959854126,-0.1446740478277206,0.9215514659881592,walking
1783088914172148000,5.18514794921875,-0.2514399818941951,1.144636483347416,1.0203490094214678,0.5118929743766785,-0.2593595385551452,0.9378928542137146,walking
1783088914182191900,5.19519189453125,-0.3136670862916856,1.2295287893436848,0.9552864624023436,0.4740065932273865,-0.3977499008178711,0.946739912033081,walking
1783088914192236800,5.20523681640625,-0.4004001978490501,1.3741549946822225,0.8290700662404298,0.4132687747478485,-0.5160717368125916,0.9567281007766724,walking
1783088914202281500,5.215281494140625,-0.5498315384469926,1.4481518126547337,0.6457862134665251,0.3616242408752441,-0.5931283831596375,0.9678720831871032,walking
1783088914212325600,5.22532568359375,-0.8211962641254067,1.4719078051649033,0.5392874942094087,0.3241710960865021,-0.6217693090438843,0.9598608016967772,walking
1783088914222369500,5.23536962890625,-1.1243949286989867,1.4051700184099376,0.4323983143299817,0.2916024923324585,-0.5716280937194824,0.916029930114746,walking
1783088914232414500,5.24541455078125,-1.627921081436425,1.060018756508827,0.1230021102905273,0.2574078440666199,-0.4249935746192932,0.8227136731147766,walking
1783088914242458600,5.255458740234375,-2.1455819963797924,0.5134072030216456,-0.4885667762756347,0.2254653573036193,-0.203731507062912,0.7026532888412476,walking
1783088914252502500,5.26550244140625,-2.2430929609306154,0.0488474714078009,-1.0111702621877192,0.1983381360769271,0.0171824656426906,0.5950899720191956,walking
1783088914262546400,5.27554638671875,-2.1073149556972086,-0.0765618461549282,-1.4199404481709004,0.1729052066802978,0.2223010063171386,0.499091237783432,walking
1783088914272591600,5.285591552734375,-1.548627179969102,-0.1463052444666624,-1.6408353619366882,0.1283424198627472,0.4128411114215851,0.3874034583568573,walking
1783088914282635500,5.295635498046875,-1.0821801733039318,-0.2754606166899204,-1.7070558468192816,0.0584091395139694,0.5033779740333557,0.2913629412651062,walking
1783088914292679400,5.305679443359375,-0.3577398175783455,-0.1348161744639277,-1.281749536576867,-0.0330875366926193,0.4809694290161133,0.2282549142837524,walking
1783088914302723600,5.3157236328125,0.3235372498556971,0.0429522758893668,-0.537972319957614,-0.121377982199192,0.4098640978336334,0.2281451970338821,walking
1783088914312768500,5.3257685546875,0.3294482274651527,0.331246362928301,0.01691547896564,-0.1770311295986175,0.3395388126373291,0.2932919859886169,walking
1783088914322812700,5.335812744140625,0.2873997685477137,0.5757748118683695,0.4033826477259397,-0.1553186327219009,0.2202946990728378,0.37173593044281,walking
1783088914332856300,5.345856201171875,-0.015211743787676,0.5445440995633601,0.8533347389250994,-0.1075446903705596,0.0485032573342323,0.4326658248901367,walking
1783088914342900500,5.355900390625,0.0607717910226434,0.3407823991671204,1.2030880877941843,-0.0789612531661987,-0.136478304862976,0.4961779713630676,walking
1783088914352945700,5.365945556640625,0.1173974952165037,0.2985162058457732,1.1745868004530668,-0.0524820089340209,-0.3086487948894501,0.5688850283622742,walking
1783088914362989300,5.3759892578125,0.0506773171834647,0.2984669598765671,1.1004828688442707,-0.0140467341989278,-0.4152455627918243,0.6493180990219116,walking
1783088914373033500,5.386033447265625,-0.0500647382430732,0.258268805000931,0.9393611635178328,0.0456047095358371,-0.4544450640678406,0.7292522192001343,walking
1783088914383077600,5.39607763671875,-0.349801791120693,0.2157009983845055,0.6570405979305506,0.1239663660526275,-0.430570900440216,0.7893424034118652,walking
1783088914393122600,5.40612255859375,-0.5465012249805032,0.1438328630037605,0.5390197831839323,0.1891201138496399,-0.366352379322052,0.834228515625,walking
1783088914403166500,5.41616650390625,-0.7992544814303517,0.1197393091022968,0.5195312388598918,0.2178215384483337,-0.3192737996578216,0.8398011922836304,walking
1783088914413210600,5.426210693359375,-0.6531795385882257,-0.0396728158272802,0.7412871533691883,0.1976224333047866,-0.2790397107601166,0.8254562616348267,walking
1783088914423254500,5.436254638671875,-0.6164268479913473,-0.1880130732528865,0.8815157082706689,0.1302551180124282,-0.2313422262668609,0.8084961771965027,walking
1783088914433299500,5.446299560546875,-0.6686972795851528,-0.391366777370125,0.7966594965010881,0.0517819821834564,-0.1848694235086441,0.7757478952407837,walking
1783088914443343600,5.456343505859375,-0.5493146749660373,-0.7740199408002197,0.7645622304946184,-0.0003968018572777,-0.1417070478200912,0.7063280344009399,walking
1783088914453387500,5.466387451171875,-0.4339654175162315,-1.1949869066640737,0.6071604224741458,-0.0389314778149127,-0.0871138870716095,0.6301590204238892,walking
1783088914463431700,5.476431640625,-0.3275539381511509,-1.2616302931338548,0.316954072073102,-0.0578231438994407,0.002330512041226,0.5829105973243713,walking
1783088914473476600,5.4864765625,-0.2826512588463723,-1.1043640941917896,-0.0521668250888586,-0.0656285732984542,0.101374827325344,0.5318436622619629,walking
1783088914483520500,5.4965205078125,-0.3917782807804644,-1.2137994514226913,-0.2707382643431425,-0.0569373443722724,0.1921209692955017,0.4663061797618866,walking
1783088914493564700,5.506564697265625,-0.4738109595619141,-1.4962892360970377,-0.3182943807661533,-0.0160245448350906,0.2449079006910324,0.3868263065814972,walking
1783088914503608600,5.516608642578125,-0.4422731540691107,-1.7995875616528092,-0.3427303183645009,0.0394232682883739,0.2627604007720947,0.3195117115974426,walking
1783088914513653500,5.526653564453125,-0.3938705038193613,-1.9424509951025248,-0.3405804468542337,0.0853950828313827,0.2553711831569671,0.2808115482330322,walking
1783088914523697700,5.53669775390625,-0.335623189773038,-1.924996733085066,-0.3635965807825326,0.120810329914093,0.2540430724620819,0.2718031406402588,walking
1783088914533741600,5.546741455078125,-0.2985583644870668,-1.8533976239040493,-0.5191752650290727,0.1560932993888855,0.2575894594192505,0.273514986038208,walking
1783088914543785500,5.556785400390625,-0.3454871427919715,-1.821774551280588,-0.5742430722564459,0.1995896399021148,0.2411385625600814,0.2979731857776642,walking
1783088914553830700,5.56683056640625,-0.4936110540531575,-1.6083086184717714,-0.4164683392703533,0.259707361459732,0.1717053204774856,0.3588249981403351,walking
1783088914563874600,5.57687451171875,-0.6760130094259977,-1.330499685090035,-0.0062467854350805,0.3235835433006286,0.0322901681065559,0.4366827607154846,walking
1783088914573918500,5.58691845703125,-0.8130988093223422,-1.0847530925318598,0.6173679282337426,0.3778315186500549,-0.1726129651069641,0.5208339095115662,walking
1783088914583962400,5.59696240234375,-0.9017108664941044,-0.8790776674687862,1.187999239733815,0.4203478097915649,-0.3815762996673584,0.601617693901062,walking
1783088914594007600,5.607007568359375,-0.9104868781458586,-0.7313054191894829,1.355064948156476,0.4451803565025329,-0.5131492018699646,0.6763111352920532,walking
1783088914604051700,5.6170517578125,-1.0703033460926263,-0.6299056305065751,1.0717746607542038,0.4632847905158996,-0.5297526717185974,0.7653725743293762,walking
1783088914614095400,5.627095458984375,-1.494623056450486,-0.2685026142455637,0.4950958857834339,0.4580662250518799,-0.5169594883918762,0.89680016040802,walking
1783088914624139500,5.637139404296875,-1.244434243661165,0.3020244331624359,0.3940343891441822,0.4065993130207062,-0.5634297728538513,0.9860764741897584,walking
1783088914634184700,5.647184814453125,-0.3758281397156417,0.5474516575731336,0.5853980879992247,0.3058748543262481,-0.6523765325546265,0.988765299320221,walking
1783088914644228400,5.657228271484375,0.3824947579979896,0.4515910175126045,0.528270425632596,0.2126812785863876,-0.5766210556030273,1.0018794536590576,walking
1783088914654272500,5.6672724609375,-0.0233143862225115,0.4463833658669143,-0.7658528548270463,0.19646717607975,-0.3146566748619079,1.0862231254577637,walking
1783088914664316400,5.67731640625,0.0014244798451662,0.7938066643532365,-2.1419138292610644,0.2241685688495636,-0.0532911010086536,1.1866211891174316,walking
1783088914674361300,5.687361328125,1.1178513522744178,1.1276783342838286,-2.4998002157032486,0.2213195562362671,0.1232147067785263,1.2157707214355469,walking
1783088914684405500,5.697405517578125,1.8466444963820277,0.9564033376030624,-2.3831501047879455,0.1612745970487594,0.3210452497005462,1.2409815788269043,walking
1783088914694449400,5.707449462890625,0.8112772199183702,0.7240978989634662,-2.5986130566328765,0.1054989024996757,0.5113982558250427,1.2692919969558716,walking
1783088914704493600,5.71749365234375,-0.4355341281376779,0.4007375400446355,-2.364339021334052,0.1251690089702606,0.5195826888084412,1.2288529872894287,walking
1783088914714538500,5.72753857421875,-0.8298096325613558,-0.1330265145681798,-0.9731944595366716,0.1794981062412262,0.3680083751678467,1.10002601146698,walking
1783088914724582400,5.73758251953125,-1.0683943706661465,-0.4652291553080082,0.1647106697291135,0.2190604209899902,0.1650416851043701,0.9193708300590516,walking
1783088914734626600,5.74762646484375,-1.3589452967211604,-0.6159992702290416,0.4462053058862686,0.239140510559082,-0.0128183374181389,0.7621262669563293,walking
1783088914744670700,5.757670654296875,-1.5082289724767208,-0.5390132803779095,0.3173684980928897,0.2522587180137634,-0.1623484492301941,0.6578935980796814,walking
1783088914754715400,5.76771533203125,-1.1509640789337456,-0.1682576216209679,0.0239244809448719,0.2602409124374389,-0.3710581660270691,0.617505669593811,walking
1783088914764759600,5.777759521484375,0.1790173544358462,0.305608356063813,0.1106757126808166,0.2590094804763794,-0.574588418006897,0.6046508550643921,walking
1783088914774803700,5.7878037109375,1.486887493762374,0.6560489565446972,-0.0405500370532274,0.2224029600620269,-0.6924622654914856,0.6001083254814148,walking
1783088914784847600,5.79784765625,2.2443445684269068,0.5692899068284779,-0.5046551567673683,0.1889089196920395,-0.741446852684021,0.6113892197608948,walking
1783088914794892500,5.807892578125,2.591427529042959,0.1990508923567831,-0.6231985340833663,0.1860215663909912,-0.7661492228507996,0.6451289653778076,walking
1783088914804936700,5.817936767578125,2.6449264795184133,-0.1442602946355939,-0.3529138587266207,0.2145847678184509,-0.7862395644187927,0.7140440940856934,walking
1783088914814980600,5.827980712890625,2.641814484977722,-0.2187766795028,0.052229368931055,0.2636663913726806,-0.7772799730300903,0.8066824078559875,walking
1783088914825024500,5.8380244140625,2.6722651528209447,-0.0602061199638992,0.3529050908982754,0.3053909242153168,-0.7124882340431213,0.9159521460533142,walking
1783088914835069400,5.8480693359375,2.519267424978316,0.3315141470190137,0.3815390647083521,0.3063089549541473,-0.611992597579956,1.046533465385437,walking
1783088914845113600,5.858113525390625,2.2565029159933325,0.8186120197858661,0.4970248080193996,0.282799631357193,-0.5180040597915649,1.171894073486328,walking
1783088914855157500,5.868157470703125,2.056531401660293,1.1305804854661226,0.7750257568418979,0.2605189383029938,-0.4513149261474609,1.2791781425476074,walking
1783088914865201400,5.878201416015625,1.5499185349538922,1.216661343659833,0.906258519861102,0.2516050934791565,-0.4078137874603271,1.3435862064361572,walking
1783088914875246600,5.88824658203125,0.9250720875330268,0.9591085049085318,0.9437181896835564,0.2492106556892395,-0.4253948926925659,1.3678451776504517,walking
1783088914885290500,5.89829052734375,0.5334809998877347,0.4748108573194592,1.1504068834424015,0.2285711616277694,-0.448068767786026,1.3509598970413208,walking
1783088914895334400,5.90833447265625,0.1998183695979416,-0.0062278615389019,1.1063473769634962,0.1824150383472442,-0.4343090057373047,1.295639157295227,walking
1783088914905378600,5.918378662109375,0.1161927225366234,-0.3263768571957945,0.7805489041775464,0.135026752948761,-0.3973696231842041,1.2298582792282104,walking
1783088914915423700,5.928423828125,0.4033931691199541,-0.3774551563955843,0.4348819478392601,0.1102351695299148,-0.3625161051750183,1.1786720752716064,walking
1783088914925467400,5.93846728515625,0.939489173811674,-0.2116113179180771,0.1750561226546764,0.1040976494550705,-0.2985600531101227,1.1307716369628906,walking
1783088914935511600,5.948511474609375,1.2396734590001404,-0.1720348020721226,-0.1827063451468944,0.0918418616056442,-0.2099436968564987,1.091946363449097,walking
1783088914945555500,5.958555419921875,1.4548118550658224,-0.2261706622116267,-0.4116641538590193,0.0606685020029544,-0.138394147157669,1.071150779724121,walking
1783088914955600400,5.968600341796875,1.5594012335702776,-0.2114038857124745,-0.3619862229764461,0.0332281701266765,-0.0950719937682151,1.0765146017074585,walking
1783088914965644500,5.97864453125,1.6007377448260782,-0.1704824580635875,-0.1435726046323776,0.0262996908277273,-0.0913867130875587,1.0936578512191772,walking
1783088914975688400,5.9886884765625,1.4595100958846507,-0.1488812324345111,0.1533703605473041,0.0513454563915729,-0.126371294260025,1.0970534086227417,walking
1783088914985732600,5.998732666015625,1.296955289015174,-0.1889855715468525,0.6129629712730645,0.0659715309739112,-0.1837658882141113,1.0898244380950928,walking
1783088914995777500,6.008777587890625,1.1247177309125662,-0.2060128403238952,1.0414403127670286,0.0620141252875328,-0.2569403052330017,1.0820485353469849,walking
1783088915005821400,6.018821533203125,1.0997962017543614,-0.1902588063530624,1.347327047380805,0.0404768772423267,-0.3262732923030853,1.0838557481765747,walking
1783088915015865600,6.028865478515625,0.9973252767086028,-0.1518386209353804,1.2899100466787814,0.0250864531844854,-0.3525052964687347,1.093083143234253,walking
1783088915025909500,6.038909423828125,0.9182321585103868,-0.0833211111567914,0.8404086218565702,0.0271155163645744,-0.3488117456436157,1.1291126012802124,walking
1783088915035954400,6.048954345703125,1.0762485912978648,0.1119661178175359,0.4481073401153087,0.0545343421399593,-0.3259761035442352,1.1888972520828247,walking
1783088915045998600,6.05899853515625,1.3056779630444943,0.3469429676234722,0.0372118325412273,0.0757743865251541,-0.2554031312465668,1.2561365365982056,walking
1783088915056042500,6.06904248046875,1.4021544699810444,0.4665539011057466,-0.4236977060019969,0.0582506507635116,-0.1302994191646576,1.3136268854141235,walking
1783088915066086700,6.079086669921875,1.3085364212155342,0.3595128916654735,-0.7554951269418001,0.0069381929934024,0.0197934210300445,1.3668837547302246,walking
1783088915076131600,6.089131591796875,1.083347463517636,0.1859598670501261,-0.8108879283398389,-0.0552237965166568,0.1419995576143264,1.389955997467041,walking
1783088915086175500,6.099175537109375,1.054711882272363,0.0116341775618493,-0.5640162772744893,-0.1032014489173889,0.2071031928062439,1.3405027389526367,walking
1783088915096219600,6.1092197265625,1.0847232819154855,-0.3357100643388926,-0.2937631660997867,-0.1373818963766098,0.2429999113082885,1.2608697414398191,walking
1783088915106263600,6.119263671875,0.8173178152568638,-0.5574496122352779,-0.2522434072315693,-0.154197096824646,0.2322894781827926,1.1699140071868896,walking
1783088915116308500,6.12930859375,0.7100653550229966,-0.7695663223922252,-0.0761783997952938,-0.1450404375791549,0.1688184589147567,1.059878945350647,walking
1783088915126352600,6.1393525390625,0.7290873047485947,-1.0365677382946017,0.1559147843331098,-0.1145823895931243,0.0707781761884689,0.9420542120933532,walking
1783088915136396500,6.149396484375,0.7274819153785705,-1.144050500153005,0.0286754748642444,-0.0712661519646644,-0.0292065478861331,0.8612373471260071,walking
1783088915146440400,6.1594404296875,0.909123992294818,-0.9804406312726436,-0.336430341437459,-0.0344034694135189,-0.1252164244651794,0.8344821333885193,walking
1783088915156485600,6.169485595703125,1.2011014440216123,-0.6895515593044459,-0.5929109478473663,-0.0028076448943465,-0.2257444411516189,0.8227019309997559,walking
1783088915166529500,6.179529541015625,1.4639957168661055,-0.4973572548441589,-0.7080430554151534,0.0156083796173334,-0.3289113044738769,0.82373046875,walking
1783088915176573400,6.189573486328125,1.609812593293935,-0.3623138474956154,-0.6884983969897032,0.0261816121637821,-0.4154841899871826,0.8416207432746887,walking
1783088915186617600,6.19961767578125,1.4374544775515794,-0.2529020172707736,-0.5327694906175137,0.0407975725829601,-0.5188968181610107,0.8643190860748291,walking
1783088915196662500,6.20966259765625,1.5480851820468902,-0.2227070777542889,-0.1769844603687524,0.0534132309257984,-0.6133660674095154,0.8911480903625488,walking
1783088915206706400,6.21970654296875,1.570309727206081,-0.1623575307317078,-0.0938753845274448,0.0667069405317306,-0.6559649705886841,0.9253763556480408,walking
1783088915216750300,6.229750244140625,1.48467084062621,0.0062250119946897,-0.1782452740848064,0.0878960117697715,-0.6490347385406494,0.9821402430534364,walking
1783088915226794500,6.23979443359375,1.4922976822428404,0.2069425223894417,-0.1965378866225481,0.110121950507164,-0.5907410979270935,1.036776781082153,walking
1783088915236839400,6.24983935546875,1.3879010498315094,0.3482230705618858,-0.2561298932760953,0.1151300445199012,-0.5036752820014954,1.0673128366470337,walking
1783088915246883300,6.25988330078125,1.2435875637039542,0.4123812160871922,-0.2863245405316352,0.0845835879445076,-0.4146963953971863,1.0946506261825562,walking
1783088915256927500,6.269927490234375,1.0800272330537437,0.4314550421305,-0.2902951977282762,0.0453792437911033,-0.3184186518192291,1.1174088716506958,walking
1783088915266971600,6.2799716796875,0.8058806215718388,0.413463458365947,-0.3241758400201797,0.0179918278008699,-0.1968482732772827,1.1264322996139526,walking
1783088915277016300,6.290016357421875,0.4995446818858385,0.263657658432424,-0.4038391593217849,-0.0094908978790044,-0.0627351924777031,1.101638674736023,walking
1783088915287060500,6.300060546875,0.0601141308315098,0.0056833063334226,-0.4965560214638709,-0.0404014103114604,0.0264727137982845,1.0430686473846436,walking
1783088915297104600,6.310104736328125,0.1015180082350969,-0.1829889614805579,-0.3718938690066337,-0.0761367827653884,0.0660591498017311,0.9819505214691162,walking
1783088915307148500,6.3201484375,0.5358861613333225,-0.1203229542091488,-0.2933352960765361,-0.1138322353363037,0.0925701186060905,0.9013190269470216,walking
1783088915317193500,6.330193359375,0.8903181695379316,-0.173715813961625,-0.4800046996355056,-0.138627678155899,0.1181588172912597,0.7920151352882385,walking
1783088915327237600,6.340237548828125,1.21498150081411,-0.3852285668760538,-0.6216413677692413,-0.137211412191391,0.1421885192394256,0.6877998113632202,walking
1783088915337281500,6.350281494140625,1.3617398958757518,-0.5460602032147348,-0.802017808663845,-0.1118735969066619,0.1877802610397339,0.619403600692749,walking
1783088915347325400,6.360325439453125,1.3619643522813916,-0.5564442345850169,-0.9244394887179136,-0.0761712566018104,0.2222775220870971,0.5610082149505615,walking
1783088915357370400,6.370370361328125,1.3764588877104222,-0.6526236582711339,-0.7855617639034986,-0.0395405404269695,0.2354039698839187,0.5052091479301453,walking
1783088915367414500,6.38041455078125,1.3517529009990394,-0.7431491478487848,-0.5686690715163946,-0.0170384291559457,0.2101183235645294,0.4645993411540985,walking
1783088915377458700,6.390458740234375,1.3384876151040197,-0.6912342516943812,-0.3952718219846486,0.0042718034237623,0.1636983752250671,0.4421093463897705,walking
1783088915387502300,6.40050244140625,1.281592884710431,-0.546752715523541,-0.38600013577044,0.0279851220548152,0.1187958791851997,0.4387590885162353,walking
1783088915397547500,6.410547607421875,1.18411582242921,-0.4496892024792731,-0.4140045795053243,0.057737722992897,0.0579594001173973,0.4497495293617248,walking
1783088915407591700,6.420591796875,1.0001195836022496,-0.3831041220679879,-0.4336334090828895,0.0980955362319946,-0.0015286952257156,0.4721760153770447,walking
1783088915417635300,6.43063525390625,0.7747174215450883,-0.3907059753738343,-0.4534586380153894,0.1356036216020584,-0.0489078909158706,0.4921092689037323,walking
1783088915427679500,6.440679443359375,0.5388122779130935,-0.4306935562387108,-0.3959212258040905,0.1543386876583099,-0.0794311761856079,0.5156159400939941,walking
1783088915437724700,6.450724609375,0.3974268080614507,-0.4932561031356454,-0.2287310142189264,0.1505459100008011,-0.0837219282984733,0.5489962100982666,walking
1783088915447768600,6.4607685546875,0.2869147615097463,-0.5157498206250369,-0.0800602096647024,0.1394293457269668,-0.074367307126522,0.5685254335403442,walking
1783088915457812500,6.4708125,0.2362082182317972,-0.5755842577323317,0.0359375748217105,0.1523130983114242,-0.0708851963281631,0.5760670304298401,walking
1783088915467856400,6.4808564453125,0.4067961094312369,-0.5121494580455124,0.0844692582786083,0.1978638023138046,-0.0640459358692169,0.6080955266952515,walking
1783088915477901600,6.490901611328125,0.6070975863710045,-0.2856673917971551,-0.0168237090289592,0.2454440593719482,-0.0575501322746276,0.65010666847229,walking
1783088915487945500,6.500945556640625,0.7339164784707128,-0.0254779939971864,-0.0759077661603689,0.2745468318462372,-0.0387040078639984,0.7005927562713623,walking
1783088915497989400,6.5109892578125,0.8163352339603006,0.2024910959385335,0.0911181947737932,0.2572447061538696,-0.0388633422553539,0.7374368906021118,walking
1783088915508033500,6.521033447265625,0.8542747962541878,0.3255028508402407,0.476132242116332,0.1988461315631866,-0.079143650829792,0.7545583248138428,walking
1783088915518078500,6.531078369140625,0.9531431667633354,0.3777224290296435,0.9988327586621044,0.1592709571123123,-0.1748441606760025,0.7777503728866577,walking
1783088915528122400,6.541122314453125,1.0455556391313672,0.5410438363574445,1.5142127230614424,0.32316854596138,-0.2826499938964844,0.8077226877212524,walking
1783088915538166500,6.55116650390625,1.1415279959380626,0.7709433098338544,1.8530115471959112,0.2249666005373001,-0.507086992263794,0.8247663378715515,walking
1783088915548210400,6.56121044921875,1.2632292527630924,0.8078186038970947,1.6638181781172752,0.0503401942551136,-0.6563395857810974,0.8867844343185425,walking
1783088915558255400,6.57125537109375,1.3360584882609543,0.9981551516614854,1.858985945430398,0.0822525843977928,-0.7706174254417419,0.9677125811576844,walking
1783088915568299500,6.581299560546875,0.8475688688747585,1.1572523654229938,2.3097896850228308,0.2184722125530243,-0.8810397982597351,1.027949571609497,walking
1783088915578343400,6.591343505859375,0.3395126714922487,0.9434596848778426,2.1486849308311937,0.3583652377128601,-0.9001600742340088,1.0857475996017456,walking
1783088915588387600,6.6013876953125,0.1835997868552804,0.9081149613827466,1.651664214465022,0.4565727710723877,-0.8708229660987854,1.1328660249710083,walking
1783088915598432500,6.6114326171875,0.134283236631006,0.9035631432972848,1.2620295215845108,0.4920600652694702,-0.8091577887535095,1.1527055501937866,walking
1783088915608476400,6.621476318359375,0.1091023258842527,0.7447516146093607,0.682985771048069,0.4581415057182312,-0.684718668460846,1.1495872735977173,walking
1783088915618520600,6.6315205078125,-0.0346336526162922,0.6001590192794799,-0.1121457852333784,0.3988118171691894,-0.5047563910484314,1.1369116306304932,walking
1783088915628564500,6.641564453125,-0.2435952597431838,0.4818877369031309,-0.9529635724127292,0.3675468266010284,-0.2410003691911697,1.1165679693222046,walking
1783088915638609400,6.651609375,-0.5855728600442409,0.3951253992512822,-1.91679691388607,0.3785216212272644,0.0795705243945121,1.0740267038345337,walking
1783088915648653600,6.661653564453125,-1.0824202656701207,0.2968514875039458,-2.606806299960613,0.4486352205276489,0.4220969676971435,0.9831261038780212,walking
1783088915658697700,6.67169775390625,-1.4575241827644407,0.098705288901925,-3.027292642700672,0.5457051992416382,0.6845662593841553,0.8635669946670532,walking
1783088915668741400,6.681741455078125,-1.3353138073734938,-0.0461254990980029,-3.0842788507699965,0.5974653363227844,0.8038074374198914,0.7448033094406128,walking
1783088915678786600,6.69178662109375,-0.9302778394825756,-0.0156822839088737,-2.7946862483531234,0.5758762359619141,0.8020044565200806,0.6135715246200562,walking
1783088915688830500,6.70183056640625,-0.6250729496531188,-0.0958667044751346,-2.21415372056365,0.5173580646514893,0.6945024728775024,0.4929537773132324,walking
1783088915698874400,6.711874267578125,-0.4957818222209811,-0.1985812290184199,-1.4051573050588368,0.4766899049282074,0.4976538717746734,0.4153866469860077,walking
1783088915708918500,6.72191845703125,-0.3866391643263399,-0.1794781768806278,-0.5637573340773582,0.4508923888206482,0.2386894226074218,0.4010332822799682,walking
1783088915718963500,6.73196337890625,-0.2132962753303348,-0.1281621234022081,0.0859703104913234,0.4683583378791809,-0.0190544258803129,0.449835866689682,walking
1783088915729007400,6.74200732421875,-0.1467439281448722,0.0956454629398882,0.4017699518322944,0.5095374584197998,-0.2593541145324707,0.5254035592079163,walking
1783088915739051500,6.752051513671875,-0.2221532432638108,0.3674076635032892,0.5320277323395014,0.5539811253547668,-0.4428381323814392,0.6082025766372681,walking
1783088915749095400,6.762095458984375,-0.3539652674756944,0.6139804777525365,0.3377402549922466,0.6034117937088013,-0.5603261590003967,0.6975471377372742,walking
1783088915759140600,6.772140625,-0.3041638563439249,0.8343648116476833,0.2751134106874466,0.6462336778640747,-0.6237747073173523,0.7772361040115356,walking
1783088915769184500,6.7821845703125,-0.1042513787217438,0.8713866745747625,0.3572317219257354,0.6771809458732605,-0.6146100163459778,0.840126633644104,walking
1783088915779228400,6.792228515625,0.0051832478567957,0.7263910514019429,0.3371493033617734,0.7173076868057251,-0.5254791378974915,0.877115786075592,walking
1783088915789272600,6.8022724609375,0.0474039946012198,0.50833077654019,0.1863578533917665,0.7705250978469849,-0.3766452074050903,0.9075950980186462,walking
1783088915799317500,6.8123173828125,0.2361268235586583,0.3596255582597106,0.2091407630860805,0.820600152015686,-0.2325023859739303,0.9256000518798828,walking
1783088915809361400,6.822361328125,0.419334396225959,0.3646937283694744,0.4112427135765552,0.8175945281982422,-0.0942321345210075,0.8951396346092224,walking
1783088915819405600,6.832405517578125,0.3835917594544589,0.258948457828164,0.4191314209997653,0.7082779407501221,0.0130150932818651,0.8088350296020508,walking
1783088915829449500,6.842449462890625,0.2029465846210718,0.0641967239700257,0.3900187237620353,0.5243797898292542,0.0752222761511802,0.7170236110687256,walking
1783088915839494400,6.852494384765625,0.2130785409264266,-0.1140430702220648,0.4292115009874105,0.360974907875061,0.1031673774123191,0.6460642218589783,walking
1783088915849538600,6.86253857421875,0.313312646830827,-0.1389654030978679,0.3103448830664158,0.2889963388442993,0.126593604683876,0.6240742802619934,walking
1783088915859582500,6.87258251953125,0.3635946810863912,-0.0586827097889035,0.1780932983934879,0.2825581431388855,0.1437679231166839,0.6533859372138977,walking
1783088915869626600,6.882626708984375,0.3639709670528769,0.0442867393635213,0.1019055462479591,0.2804446518421173,0.1239707767963409,0.7125509977340698,walking
1783088915879671600,6.892671630859375,0.526825925912708,0.1205789017315953,0.058723407125473,0.2446488738059997,0.0316685661673545,0.7833852171897888,walking
1783088915889715500,6.902715576171875,0.8101797800704836,0.1829375235542654,0.045948096704483,0.2026785314083099,-0.0631492882966995,0.8535776138305664,walking
1783088915899759600,6.912759521484375,0.9716162504345178,0.2835417048800736,0.0269084651917219,0.1959568262100219,-0.1069415211677551,0.9210912585258484,walking
1783088915909803300,6.92280322265625,1.054507884132862,0.4469849850218743,0.0193780696868896,0.2186826467514038,-0.1072829365730285,1.0139962434768677,walking
1783088915919848400,6.932848388671875,1.138214633606374,0.6550535888317972,0.0327075068593025,0.2724398970603943,-0.0733306631445884,1.1420122385025024,walking
1783088915929892600,6.942892578125,1.0680829666294156,0.7616104680169373,-0.0741840111076831,0.3345368504524231,0.023751676082611,1.284069538116455,walking
1783088915939936500,6.9529365234375,0.5560751090116799,0.8530775492936372,-0.0914829364329576,0.3358864188194275,0.0745014175772667,1.430111050605774,walking
1783088915949980400,6.96298046875,0.4781526420280337,0.9632567106291652,0.5796762032210827,0.249173879623413,0.0157741848379373,1.518734574317932,walking
1783088915960025600,6.973025634765625,0.8124310661286115,0.6583683394029736,1.2548130143344405,0.1350288391113281,-0.054617516696453,1.5169159173965454,walking
1783088915970069500,6.983069580078125,0.7169276420079171,0.2503244218677282,1.328458680781722,0.0454510152339935,-0.109857864677906,1.46711266040802,walking
1783088915980113400,6.993113525390625,0.198124132900685,-0.082930723599717,1.122500639384985,0.0096274362877011,-0.1440300345420837,1.408536076545715,walking
1783088915990158600,7.00315869140625,-0.0646910833582282,-0.3532939440853893,0.982753730520606,0.0250338222831487,-0.182826429605484,1.3411381244659424,walking
1783088916000202500,7.013202392578125,0.0480950456053018,-0.5635347773678601,0.9499170443236828,0.0554229393601417,-0.2328531444072723,1.2481952905654907,walking
1783088916010246400,7.023246337890625,0.1953402012705802,-0.7092557922057807,0.8053717952668666,0.0620502196252346,-0.234254240989685,1.1617650985717771,walking
1783088916020290300,7.033290283203125,0.086896193164587,-0.6394766649935394,0.5461655632853508,0.0504527986049652,-0.2237366437911987,1.096311092376709,walking
1783088916030334500,7.04333447265625,0.0900742386788129,-0.6298798384781926,0.5208668713778257,0.0230105221271514,-0.229394257068634,1.0300471782684326,walking
1783088916040379600,7.053379638671875,0.2421159809708595,-0.6751704941872507,0.6151175189584493,-0.0224907677620649,-0.2323402613401413,0.9640771746635436,walking
1783088916050423300,7.06342333984375,0.1957430829830467,-0.5755043974291533,0.4630833754509687,-0.0565597899258136,-0.2332310974597931,0.9174137711524964,walking
1783088916060467500,7.073467529296875,0.0948439372986555,-0.5458233987841755,0.3827636380672454,-0.0610843338072299,-0.2548605799674988,0.8871746063232422,walking
1783088916070511600,7.08351171875,0.0847460293933749,-0.503380022265017,0.3506996898084878,-0.0426925420761108,-0.2704525887966156,0.876426637172699,walking
1783088916080556300,7.093556396484375,0.0901689312249422,-0.4579654479153454,0.3021867110520601,-0.0247282069176435,-0.2658281922340393,0.8769168257713318,walking
1783088916090600400,7.103600341796875,-0.0965488415203988,-0.473767924137786,0.1819716011315584,0.0011539903935045,-0.257630705833435,0.8735332489013672,walking
1783088916100644600,7.11364453125,-0.3592074059128761,-0.6074666388791055,0.1203156476855278,0.0349758528172969,-0.2268897444009781,0.8627076745033264,walking
1783088916110688500,7.1236884765625,-0.4788679506905376,-0.6871322232030331,0.077936641639471,0.0565296150743961,-0.2005263119935989,0.8425992131233215,walking
1783088916120733400,7.1337333984375,-0.4081777730479836,-0.5807360144723206,0.150520816335082,0.0427013859152793,-0.1797552704811096,0.811163067817688,walking
1783088916130777600,7.143777587890625,-0.3198061005033552,-0.6946920639980584,0.1944657565236091,0.0138953020796179,-0.1535494923591613,0.745492696762085,walking
1783088916140821500,7.153821533203125,-0.3984504520207643,-0.898298793028295,0.154334821665287,-0.0071033569984138,-0.1512620151042938,0.6690241098403931,walking
1783088916150865700,7.16386572265625,-0.539130257821083,-1.054819799626246,0.0700993721425533,-0.0157775394618511,-0.1788635402917862,0.5931163430213928,walking
1783088916160910600,7.17391064453125,-0.4294765816643834,-1.1879391801096495,-0.1869482205003499,-0.0139907896518707,-0.2296225726604461,0.5354087948799133,walking
1783088916170954500,7.18395458984375,-0.1881029434934258,-1.1856884785734116,-0.4933329677641391,0.0051349680870771,-0.296582967042923,0.4869400560855865,walking
1783088916180998700,7.19399853515625,0.0829481861911714,-1.1358197012938558,-0.726968120637536,0.0495722070336341,-0.3692377209663391,0.4591044187545776,walking
1783088916191042300,7.204042236328125,0.2792439346209168,-1.136035024544969,-0.8271984271496534,0.1108611449599266,-0.4321246147155761,0.4437786638736725,walking
1783088916201087500,7.21408740234375,0.2308946219936013,-1.1633981016363948,-0.8538093706995248,0.1677576452493667,-0.47455495595932,0.4236719608306885,walking
1783088916211131400,7.22413134765625,0.1647436952158808,-1.257435471792519,-0.7800263416081666,0.1940315961837768,-0.5012627243995667,0.3809798657894134,walking
1783088916221175600,7.234175537109375,0.2640174316555261,-1.3610790938794612,-0.6440192037940025,0.1864513158798217,-0.5174206495285034,0.3140158951282501,walking
1783088916231219200,7.24421923828125,0.2324944584056734,-1.4497380589328706,-0.5828630165636539,0.16315957903862,-0.5502004623413086,0.2288229614496231,walking
1783088916241264400,7.254264404296875,0.1588572675257921,-1.6040734651200472,-0.4067144224971533,0.1481909900903701,-0.6191393733024597,0.1441204696893692,walking
1783088916251308500,7.26430859375,0.1323388245649635,-1.734569292166829,-0.2153548152953386,0.1685689687728881,-0.6486887335777283,0.0893134176731109,walking
1783088916261352200,7.274352294921875,-0.438498384770751,-1.7032891877621412,-0.498159949529171,0.2341721206903457,-0.572778582572937,0.1385404169559478,walking
1783088916271396400,7.284396240234375,-1.2476140427410602,-1.0855394936691969,-1.247979953444004,0.3427537083625793,-0.4489250779151916,0.2490520179271698,walking
1783088916281441500,7.294441650390625,-0.811691645938158,-0.4646413454826921,-1.7183523168593644,0.4168398976325989,-0.3170210123062134,0.3090486824512481,walking
1783088916291485200,7.304485107421875,-0.0951478886812925,-0.4087133412294089,-2.1079086838066576,0.4102861285209656,-0.2296775728464126,0.3611880540847778,walking
1783088916301529300,7.314529296875,0.7860986472591758,0.0147382079917937,-2.165339128512144,0.3962859809398651,-0.1976235657930374,0.4471365511417389,walking
1783088916311573200,7.3245732421875,1.5264605024769902,0.4680034423269331,-1.8437492133319375,0.4399578273296356,-0.1815801560878753,0.5382257103919983,walking
1783088916321618400,7.334618408203125,1.5701351012915372,0.5492738314989954,-1.4932359860062598,0.4922381639480591,-0.1709326356649398,0.634537935256958,walking
1783088916331662300,7.344662353515625,1.3135139173671602,0.5948089634884148,-1.093501339393854,0.4864023923873901,-0.1096514388918876,0.7161393165588379,walking
1783088916341706200,7.354706298828125,0.7832716071397066,0.4691925790462642,-0.7963432701587676,0.4280038177967071,-0.0070496373809874,0.7969229221343994,walking
1783088916351750400,7.36475048828125,-0.0044549335822463,0.4309949503380805,-0.4181295504808425,0.36390021443367,0.0906630754470825,0.8558675050735474,walking
1783088916361795300,7.37479541015625,-0.5575763073548674,0.3025363282073289,0.0675263067841529,0.3187752068042755,0.1409899145364761,0.8602902889251709,walking
1783088916371839200,7.384839111328125,-0.6946580886632203,0.1470486101798713,0.3339566448003053,0.2926882207393646,0.1223871856927871,0.7898669838905334,walking
1783088916381883400,7.39488330078125,-0.7645563852757215,-0.1277184712879359,0.4428104027509689,0.2866953015327453,0.0703969597816467,0.692840576171875,walking
1783088916391927600,7.404927490234375,-0.4400979289218783,-0.313904621374607,0.4045627974212169,0.2880921363830566,0.0289685595780611,0.6314070820808411,walking
1783088916401972200,7.41497216796875,-0.2137164004385471,-0.1909855862576514,0.1514268252640962,0.304396778345108,0.0222468860447406,0.6119625568389893,walking
1783088916412016400,7.425016357421875,0.1567977046474814,0.047315658730641,-0.0414952089488506,0.3376921415328979,-0.0163076967000961,0.5751358866691589,walking
1783088916422060300,7.435060302734375,0.9969149423420428,0.1266753919757902,0.1793330693215131,0.3546993434429168,-0.0710367336869239,0.559313178062439,walking
1783088916432104400,7.4451044921875,1.561563964562118,0.3746368841044604,0.2150204687744379,0.3652646243572235,-0.05406254529953,0.5945830345153809,walking
1783088916442149400,7.4551494140625,1.5987793042346834,0.7749670123919844,0.1153302604883909,0.3773743212223053,0.0071267443709075,0.661851704120636,walking
1783088916452193300,7.465193359375,1.6001842025965451,0.9332586819242684,0.3248363497555255,0.36543670296669,0.0707624405622482,0.7346135377883911,walking
1783088916462237400,7.475237548828125,1.6828139704883098,0.9667560970522464,0.639316725191474,0.3042114675045013,0.1040401980280876,0.8064996600151062,walking
1783088916472281300,7.48528125,1.7661963103130458,1.0295182581745088,0.8024182061582803,0.2067160755395889,0.0949945077300071,0.8962641358375549,walking
1783088916482326300,7.495326171875,1.8676137807831168,1.051982311177999,0.7987041540712118,0.1153600439429283,0.0807613953948021,0.997355341911316,walking
1783088916492370400,7.505370361328125,1.9363979786738752,1.0063121546320617,0.4775771802276373,0.0828087553381919,0.0838019251823425,1.085352897644043,walking
1783088916502414600,7.51541455078125,2.0748283981122073,0.9221721283078194,0.0147609312802553,0.1156144514679908,0.0697713568806648,1.170745015144348,walking
1783088916512458200,7.525458251953125,2.286411439783871,1.0259811700895427,-0.3456891681700945,0.1951087564229965,0.0567042902112007,1.253205180168152,walking
1783088916522503400,7.53550341796875,2.397865297230333,1.2508730445370078,-0.6124900930643081,0.2932372391223907,0.0657913386821746,1.3412777185440063,walking
1783088916532547600,7.545547607421875,2.21801814090684,1.441826701286435,-0.719582686561346,0.3814030587673187,0.1182185932993888,1.4271526336669922,walking
1783088916542591200,7.55559130859375,1.9063379175834356,1.503025266353786,-0.6529875231474638,0.4486345052719116,0.2158416956663131,1.4973392486572266,walking
1783088916552635400,7.565635498046875,1.6942909116618334,1.4669646496742963,-0.3938683849275112,0.4513392150402069,0.3206314742565155,1.5513761043548584,walking
1783088916562680300,7.575680419921875,1.3822792644269764,1.3727999268114566,-0.0020037410378456,0.3876945376396179,0.4164077937602997,1.6205737590789795,walking
