time,seconds_elapsed,accel_x,accel_y,accel_z,gyro_x,gyro_y,gyro_z,label
1783087309170553300,0.05655322265625,-0.0825530493937432,-0.2458776715919375,1.3590548945754766,-0.0213292576372623,-0.5491452813148499,0.5632643103599548,walking
1783087309180598500,0.0665986328125,-0.2565979491792619,-0.6131934190280736,1.0965735864460469,-0.011513540521264,-0.5295852422714233,0.5263285636901855,walking
1783087309190642400,0.076642333984375,-0.4967468678608536,-0.9217676391601562,0.6893979761779307,0.0453220456838607,-0.4725523293018341,0.4569993019104004,walking
1783087309200687400,0.086687255859375,-0.5914341532930731,-1.0632836035236717,0.2125356662213802,0.1158357262611389,-0.3811543583869934,0.3897216022014618,walking
1783087309210731500,0.0967314453125,-0.7090012329228222,-1.0611021678313612,-0.2706985168546438,0.171041190624237,-0.2343987375497818,0.3502770066261291,walking
1783087309220775400,0.106775390625,-0.8192495139718056,-1.0425402368329464,-0.6599030016243458,0.2055109441280365,-0.0399054139852523,0.3495025038719177,walking
1783087309230820400,0.1168203125,-1.0185891601420938,-0.992077877574414,-0.8593640822172165,0.2028781473636627,0.180700197815895,0.3804039359092712,walking
1783087309240864500,0.126864501953125,-1.2330002648465337,-0.8795686658561229,-0.8685685484141111,0.1811163574457168,0.3647638857364654,0.4286076128482818,walking
1783087309250909400,0.136909423828125,-1.2229800983525811,-0.7812487230099737,-0.7431207985371351,0.1492702811956405,0.4658771753311157,0.4922973811626434,walking
1783087309260953300,0.146953369140625,-0.9050332158498464,-0.7857099402025342,-0.5302449405759573,0.1260400414466858,0.5039644837379456,0.5649070739746094,walking
1783087309270998500,0.15699853515625,-0.6194077634982764,-0.912737652747333,-0.4952390936464071,0.1392146944999694,0.5146458745002747,0.6439627408981323,walking
1783087309281042400,0.16704248046875,-0.6309975173965096,-1.042311688774079,-0.5052484464854001,0.211682990193367,0.4941295981407165,0.7220834493637085,walking
1783087309291086300,0.17708642578125,-0.7652424678437412,-0.9629463295057415,-0.316897957971692,0.2997353374958038,0.4305375814437866,0.7580036520957947,walking
1783087309301131500,0.187131591796875,-0.4521741511628031,-0.9016368514098226,-0.0133516490042209,0.3616113066673279,0.3197632730007171,0.7579061985015869,walking
1783087309311175400,0.197175537109375,-0.0064485916174948,-0.8756013696603476,0.1950263130158185,0.3742360174655914,0.1902039498090744,0.7688086628913879,walking
1783087309321220400,0.207220458984375,0.130291098254919,-0.7028247362449764,0.2566074476599693,0.3247630596160888,0.0184877570718526,0.8043543696403503,walking
1783087309331264500,0.217264404296875,0.2001655756004154,-0.3621899288550019,0.32973288962543,0.2386252433061599,-0.1508048623800277,0.8523032069206238,walking
1783087309341308400,0.227308349609375,0.1145689207270741,-0.2577212541207671,0.2306774721115827,0.1707964837551117,-0.2539872825145721,0.9142758250236512,walking
1783087309351353300,0.237353271484375,-0.2996529547907411,-0.4477237476252019,0.0990823055207729,0.1371130943298339,-0.2873950600624084,0.9764635562896729,walking
1783087309361397500,0.2473974609375,-0.9414030446089804,-0.6988328901298344,0.1414279938191175,0.1260789781808853,-0.2997625172138214,1.006977915763855,walking
1783087309371442400,0.2574423828125,-1.250791649863869,-0.9118021254628896,0.3958095821231603,0.1297549456357956,-0.2951968014240265,0.993854284286499,walking
1783087309381486300,0.267486328125,-1.145119298428297,-1.13217038500607,0.5432528907090425,0.1016335487365722,-0.2924782931804657,0.9198518395423888,walking
1783087309391531500,0.277531494140625,-0.7295711427427828,-1.398557906793803,0.5742039092898369,0.0745971351861953,-0.3145905137062073,0.8273112773895264,walking
1783087309401575400,0.287575439453125,-0.289519829441607,-1.3912440766490994,0.5096025500416755,0.0992843210697174,-0.363050252199173,0.7451626062393188,walking
1783087309411619300,0.297619384765625,0.0268763164877891,-1.2065228845484557,0.257490075713396,0.1700967103242874,-0.4155171811580658,0.676558256149292,walking
1783087309421664500,0.30766455078125,0.2458803019404411,-0.9441114267848432,-0.0806879861742258,0.2827099561691284,-0.4204283654689789,0.6465572118759155,walking
1783087309431708400,0.31770849609375,0.1961993023179471,-0.7021028517112136,-0.432377271541953,0.378341943025589,-0.3693108558654785,0.6439476013183594,walking
1783087309441753300,0.32775341796875,-0.1342639474086463,-0.7372428464144468,-0.4651315401524305,0.4142546057701111,-0.2775231003761291,0.6532447338104248,walking
1783087309451797500,0.337797607421875,-0.4922174077376723,-0.7126498185582458,-0.108602998059988,0.3705803751945495,-0.1670543700456619,0.6639184355735779,walking
1783087309461841400,0.34784130859375,-0.7986062466546893,-0.7407647369302809,0.3794195883363485,0.2465992122888565,-0.0812100321054458,0.6652477979660034,walking
1783087309471886300,0.35788623046875,-0.9868871770635248,-0.9218879045389592,0.8456611355572938,0.0750775188207626,-0.0261816680431365,0.6711410880088806,walking
1783087309481930500,0.367930419921875,-1.0500959129095078,-1.0591060255780815,1.1395984891802071,-0.0648745372891426,-0.0095727611333131,0.6870067715644836,walking
1783087309491975400,0.377975341796875,-1.0202068244718014,-1.1154027900785206,1.185746492370963,-0.147878348827362,-0.0439549721777439,0.7035319209098816,walking
1783087309502019300,0.388019287109375,-0.9241618408203124,-1.1321719924412668,0.9804062906116248,-0.1502252519130706,-0.1062101423740387,0.7270653247833252,walking
1783087309512064500,0.398064453125,-0.8239215974360704,-1.077863333018124,0.5861123737484216,-0.0828917473554611,-0.1533651351928711,0.7805463671684265,walking
1783087309522108400,0.4081083984375,-0.8527741824328899,-0.9006580695055425,0.1814163053363561,0.0023498318623751,-0.1913414150476455,0.8430865406990051,walking
1783087309532152300,0.41815234375,-0.8713824367910623,-0.774567637810856,-0.0398708226174116,0.074741743505001,-0.2275201827287674,0.9085869789123536,walking
1783087309542197500,0.428197509765625,-0.9328126186572014,-0.7311299164921045,-0.0757148739367723,0.1092026978731155,-0.2532350122928619,0.9660235047340392,walking
1783087309552241400,0.438241455078125,-0.94319401967898,-0.7685871020965278,0.1300228027075529,0.1268261671066284,-0.2814075052738189,1.0100151300430298,walking
1783087309562286300,0.448286376953125,-0.9964354882620274,-0.7576850382015109,0.4681020803958177,0.1477115601301193,-0.3395620286464691,1.0493590831756592,walking
1783087309572330500,0.45833056640625,-1.12867348280102,-0.6569393295131624,0.880116947388649,0.1786604225635528,-0.4061034917831421,1.0891118049621582,walking
1783087309582374400,0.46837451171875,-1.3120622572541236,-0.5136095937259495,1.1442086133241651,0.2048331201076507,-0.4844461679458618,1.1333422660827637,walking
1783087309592419300,0.47841943359375,-1.4711311217039822,-0.3103665103763341,1.302839086356759,0.2182690352201461,-0.5741289258003235,1.1816387176513672,walking
1783087309602463500,0.48846337890625,-1.5464331770561637,-0.1120537230357527,1.3282447457700968,0.216380625963211,-0.6718905568122864,1.2208538055419922,walking
1783087309612508400,0.49850830078125,-1.4795653341807424,0.0081491119250655,1.2465320927232504,0.2139606177806854,-0.7583242654800415,1.228730082511902,walking
1783087309622552300,0.50855224609375,-1.2755631030268966,0.0768276574842631,1.1035381647616624,0.2168594896793365,-0.8519768118858337,1.2070083618164062,walking
1783087309632597500,0.518597412109375,-0.9703713649399578,0.2334910682275891,1.082492454123497,0.2079221904277801,-0.9612319469451904,1.1680984497070312,walking
1783087309642641400,0.528641357421875,-0.7180829495228827,0.4848196987017988,1.0944406660705803,0.1809877604246139,-1.0812938213348389,1.1377216577529907,walking
1783087309652685300,0.538685302734375,-0.7485805252477526,0.6337967927262187,1.0803069267779588,0.1435812562704086,-1.1926032304763794,1.1067142486572266,walking
1783087309662730500,0.54873046875,-0.9785245685182512,0.5746547217972576,1.0322241561323404,0.1038101240992546,-1.2634936571121216,1.0553035736083984,walking
1783087309672774400,0.5587744140625,-1.4101374315589663,0.1938826959386468,1.0747083761185408,0.0463617444038391,-1.3056584596633911,0.9556118249893188,walking
1783087309682819300,0.5688193359375,-2.0444038876235484,-0.4398458538569509,1.2038397829443217,-0.0213777050375938,-1.252346158027649,0.8206483721733093,walking
1783087309692863500,0.578863525390625,-3.3136879103809593,-0.9376594741664828,0.7171832242041826,-0.0266683399677276,-0.9659204483032228,0.7237855195999146,walking
1783087309702907400,0.588907470703125,-3.791856919021904,-0.5725562882132827,-0.896456087771058,-0.0033427369780838,-0.4752918779850006,0.7022036910057068,walking
1783087309712952300,0.598952392578125,-3.035957302932441,-0.149139737240225,-2.782099153980613,0.0178882498294115,0.1233745068311691,0.8979425430297852,walking
1783087309722996500,0.60899658203125,-1.6728198152184486,1.068374204660952,-4.3240912798494096,0.0332460850477218,0.7802868485450745,1.184459567070007,walking
1783087309733041400,0.61904150390625,-0.2095654182389378,1.7270147851340472,-5.643833570212125,0.0595163069665432,1.3809725046157837,1.3531808853149414,walking
1783087309743085600,0.62908544921875,0.5174127854011953,1.5368879345975814,-6.040873570913076,0.0391393341124057,1.8937005996704104,1.3322550058364868,walking
1783087309753129500,0.63912939453125,0.485514256837219,0.6992091760963202,-5.854732575142383,0.0317906066775321,2.136171340942383,1.2218416929244995,walking
1783087309763174700,0.649174560546875,-0.2918747220046818,-0.1802425853818655,-4.405787566283345,0.1278893947601318,1.9741629362106323,1.0718135833740234,walking
1783087309773218600,0.659218505859375,-0.7280693598777055,-0.9447510398626326,-2.238615377125144,0.2919079065322876,1.633491277694702,0.9074996709823608,walking
1783087309783263500,0.669263427734375,-0.9597356968961656,-1.5044262191928923,-0.9222463625878096,0.4242768287658691,1.1773064136505127,0.7915066480636597,walking
1783087309793307600,0.6793076171875,-0.8428041386909783,-1.6058517268389465,0.2385188332617282,0.4686520099639892,0.7119714617729187,0.6738974452018738,walking
1783087309803352600,0.6893525390625,-0.7207308336831629,-1.728500785908103,0.7887555915087461,0.427525907754898,0.3534774482250213,0.5227844715118408,walking
1783087309813396500,0.699396484375,-0.8890819057412445,-1.6735047287426887,0.7865612963348627,0.3659586906433105,0.0984611511230468,0.372178167104721,walking
1783087309823440600,0.709440673828125,-0.1607869204141199,-1.4531756321661171,1.0269663817346095,0.3082703053951263,-0.0741274952888488,0.2574085593223572,walking
1783087309833485600,0.719485595703125,1.0771337035693227,-1.131139288392663,1.3111802137225863,0.2234377115964889,-0.2029323428869247,0.1674858629703521,walking
1783087309843529500,0.729529541015625,2.055156460045278,-0.6786144240960479,1.2127040574014183,0.1210403069853782,-0.256906121969223,0.0924794748425483,walking
1783087309853574400,0.739574462890625,2.5082044714331624,-0.33130423059538,0.6413263114482164,0.016089653596282,-0.2877148985862732,0.0861036032438278,walking
1783087309863618600,0.74961865234375,2.8075749560207126,-0.0342136736385524,0.2828027961462735,-0.0180496741086244,-0.2490739971399307,0.1463000923395156,walking
1783087309873662500,0.759662353515625,3.1367285844534636,0.1921246002249419,-0.0747942519605159,-0.0091275516897439,-0.147409439086914,0.2785516381263733,walking
1783087309883707600,0.769707763671875,3.173445326954126,0.4796062018372118,-0.5518032769113779,0.0300205294042825,-0.0149365346878767,0.4508067071437835,walking
1783087309893751600,0.77975146484375,3.197356948417425,0.7185714636921883,-0.7841711863279343,0.091925710439682,0.0913259908556938,0.6411683559417725,walking
1783087309903796500,0.78979638671875,3.20323227019161,0.8741554086357355,-0.5243383468806744,0.1629024893045425,0.1134468615055084,0.8322191834449768,walking
1783087309913840600,0.799840576171875,3.1366838685289022,0.995189433723688,0.2170738941729068,0.2412225902080536,0.0544157624244689,1.0096123218536377,walking
1783087309923885600,0.809885498046875,3.0318481140479445,0.8996719810776412,1.0137380668491125,0.3275020122528076,-0.0693844333291053,1.1573336124420166,walking
1783087309933929500,0.819929443359375,2.899034511578083,0.7032426693961024,1.4335463641971349,0.4252429604530334,-0.1693618893623352,1.2926656007766724,walking
1783087309943973600,0.8299736328125,2.762144745710492,0.7461078515239059,1.5946365053415297,0.4817651510238647,-0.2380432933568954,1.4021753072738647,walking
1783087309954018600,0.8400185546875,2.5275556531131267,0.7270392861776054,1.8375649717390536,0.4463309943675995,-0.3317727148532867,1.469312310218811,walking
1783087309964062500,0.8500625,2.327042140857875,0.4065811515063047,2.075737183520198,0.3231909871101379,-0.4111797213554382,1.4712892770767212,walking
1783087309974107400,0.860107421875,2.0436279348149893,-0.1099903607651591,1.8981430668205024,0.161027655005455,-0.4190307259559631,1.4301292896270752,walking
1783087309984151600,0.870151611328125,1.431458305876702,-0.5493266576647758,1.311177875635028,0.0140680726617574,-0.3700548708438873,1.3593381643295288,walking
1783087309994195500,0.880195556640625,0.7604172396443784,-0.8733879313945769,0.7212801381289958,-0.0765944495797157,-0.2975039780139923,1.2774842977523804,walking
1783087310004240600,0.89024072265625,0.2598797473289072,-1.0915374919749796,0.1563707114070653,-0.0949113070964813,-0.2733084857463836,1.2048254013061523,walking
1783087310014284500,0.900284423828125,0.3337671135775745,-1.1259377742268144,-0.1003729298532009,-0.0441943369805812,-0.2813749313354492,1.1190118789672852,walking
1783087310024329500,0.91032958984375,0.7348918993741274,-1.2359748967431483,-0.2662187410920858,0.0204916968941688,-0.2928234934806824,1.0236834287643433,walking
1783087310034373600,0.92037353515625,1.0629643084414302,-1.2300571971319616,-0.4347761493772268,0.0638141334056854,-0.2792631983757019,0.9349075555801392,walking
1783087310044418600,0.93041845703125,1.1899294771440327,-1.061562624949962,-0.5561012663662434,0.062998816370964,-0.2564286291599273,0.8613468408584595,walking
1783087310054462500,0.94046240234375,1.2729114194743334,-1.003688381999731,-0.4155003710210323,0.0235731154680252,-0.2595248222351074,0.8030228018760681,walking
1783087310064506600,0.950506591796875,1.455610165836662,-1.1671052125260233,-0.2098380977004766,-0.0232713352888822,-0.2770148515701294,0.7665018439292908,walking
1783087310074551600,0.960551513671875,1.429120364448428,-1.278897946538031,-0.1269499711334705,-0.039634596556425,-0.3389325439929962,0.7582374811172485,walking
1783087310084595500,0.970595458984375,1.5694317753277718,-1.238399639672041,-0.0334545258343219,-0.0086517008021473,-0.4278574585914612,0.7628450393676758,walking
1783087310094640400,0.980640380859375,1.7258694144912063,-1.1955397182412444,0.0234703074365854,0.0396119691431522,-0.4873948097229004,0.7498226761817932,walking
1783087310104684500,0.9906845703125,1.6342603674605487,-1.2269110080607235,-0.1337596511483192,0.0704310238361358,-0.4953605830669403,0.719659686088562,walking
1783087310114728400,1.000728515625,1.5337896763212977,-1.2522902178585529,-0.377605816912651,0.079452745616436,-0.4394493997097015,0.6932480335235596,walking
1783087310124773400,1.0107734375,1.3105657350860536,-1.0407331874109804,-0.4983890821099281,0.0984266623854637,-0.3246437907218933,0.7071394324302673,walking
1783087310134817500,1.020817626953125,0.8470258480392396,-0.5948726033091545,-0.4711258121311664,0.1259514987468719,-0.1886348128318786,0.7662853002548218,walking
1783087310144862500,1.030862548828125,0.361987245889753,-0.2539449504524469,-0.039316111344099,0.1384204030036926,-0.1248296350240707,0.8348596692085266,walking
1783087310154906600,1.04090673828125,0.3280088423117995,-0.255047066475451,0.5885182658463716,0.1387825906276703,-0.0925489217042923,0.9041900634765624,walking
1783087310164950500,1.050950439453125,0.2879663163892925,-0.3794035139843821,0.7106856788784265,0.1260584890842437,-0.0714057460427284,0.9751322865486144,walking
1783087310174995500,1.060995361328125,0.3393887528516352,-0.4388340464659035,0.444867335280776,0.1105858013033866,-0.0542424730956554,1.0353095531463623,walking
1783087310185039600,1.07103955078125,0.5209003352560103,-0.5120936362050473,-0.0517792870759964,0.1094840914011001,-0.0167766623198986,1.0758112668991089,walking
1783087310195084500,1.08108447265625,0.7522779184609651,-0.6036011225573719,-0.541107110852003,0.1112066209316253,0.0077172280289232,1.0866661071777344,walking
1783087310205128400,1.09112841796875,1.0835732350975271,-0.6692316787227988,-0.5681172828525305,0.0961674824357032,0.0388597026467323,1.0723854303359983,walking
1783087310215173400,1.10117333984375,1.2029815586797892,-0.7672986697211861,-0.412919706878066,0.0545254983007907,0.0826750919222831,1.0376924276351929,walking
1783087310225217500,1.111217529296875,1.0520280500158667,-0.8771740258045494,-0.2593406720161438,-0.0082910116761922,0.1165731325745582,0.998752772808075,walking
1783087310235261400,1.121261474609375,0.8298509874850512,-0.911620631416142,-0.1330710843622684,-0.0615054965019226,0.1043079495429992,0.9700308442115784,walking
1783087310245306400,1.131306396484375,0.6890018164671957,-1.008773284048587,-0.1116121167480945,-0.0674239248037338,0.0568827874958515,0.9326571822166444,walking
1783087310255350500,1.1413505859375,0.5930021332621574,-1.256277241668105,-0.2306827328085899,-0.0318270474672317,-0.0057089556939899,0.8846350908279419,walking
1783087310265395700,1.151395751953125,0.6316140418596565,-1.431465612400323,-0.3444067271441221,0.0238351132720708,-0.1024977564811706,0.8388327360153198,walking
1783087310275439600,1.161439697265625,0.7115021098278462,-1.3945042474888265,-0.4646837963849305,0.0591249279677867,-0.2078710496425628,0.8182872533798218,walking
1783087310285483500,1.1714833984375,0.770556064081937,-1.1535255999848246,-0.5811679030835628,0.0660265088081359,-0.3018300235271454,0.8354709148406982,walking
1783087310295528400,1.181528564453125,0.8772564433909952,-0.950480961816758,-0.6363403397291898,0.0543967448174953,-0.3671248853206634,0.867389440536499,walking
1783087310305572600,1.191572509765625,0.8948618043169378,-0.9248210353814064,-0.6435889956831932,0.0439281277358531,-0.3936407566070556,0.8867174983024597,walking
1783087310315617500,1.201617431640625,0.8967661766335367,-0.8867866344109177,-0.56179567861557,0.0501290298998355,-0.4129987359046936,0.9028519988059998,walking
1783087310325661400,1.211661376953125,0.9604992286145686,-0.8934374706022441,-0.3377420085579156,0.048400230705738,-0.4368274807929992,0.922674000263214,walking
1783087310335705600,1.22170556640625,0.9758987500593066,-0.8603321965970099,-0.209341254094243,0.029746651649475,-0.4441282749176025,0.9519516825675964,walking
1783087310345750500,1.23175048828125,0.9938077701069414,-0.7678994120933115,-0.3085474782556295,-0.004741305951029,-0.4177166819572449,0.9848297238349916,walking
1783087310355794400,1.24179443359375,1.046913191220164,-0.6275245805889368,-0.4624181895405054,-0.0471854358911514,-0.3656529486179352,1.0221823453903198,walking
1783087310365839400,1.25183935546875,1.0472653656587003,-0.6050722180232405,-0.6789543235749006,-0.0638744160532951,-0.2997434437274933,1.0382347106933594,walking
1783087310375883500,1.261883544921875,0.904579334602505,-0.7535304027400911,-0.7985211987197399,-0.0552513673901557,-0.2275494039058685,1.031158447265625,walking
1783087310385928700,1.2719287109375,0.7849933163657784,-0.8381270867906511,-0.7407119838297367,-0.0345573388040065,-0.1434339731931686,1.0263731479644775,walking
1783087310395972600,1.28197265625,0.7126108017221092,-0.7768387976132333,-0.6209919639497995,-0.0255087167024612,-0.0422708615660667,1.008907675743103,walking
1783087310406016500,1.2920166015625,0.6452741722911596,-0.7617708462104201,-0.6168436120986938,-0.0297339465469121,0.070973090827465,0.9666518568992616,walking
1783087310416061700,1.302061767578125,0.5461402827136218,-0.7157356557443738,-0.7478852364599704,-0.0376094467937946,0.1773884743452072,0.91258704662323,walking
1783087310426105600,1.312105712890625,0.4978257491387426,-0.7423471838161348,-0.7896534171313047,-0.0319805666804313,0.2156376242637634,0.8628868460655212,walking
1783087310436150500,1.322150634765625,0.6777363260872662,-0.7904517279021441,-0.6675865418642759,-0.0060304589569568,0.1822186708450317,0.8162594437599182,walking
1783087310446194400,1.3321943359375,0.8461044954106212,-0.9227417448893188,-0.5469032299101353,0.0376927442848682,0.0862386971712112,0.7417497038841248,walking
1783087310456238600,1.342238525390625,0.9435581768162548,-1.1636370980240405,-0.4027981258362531,0.0782689377665519,-0.0262143425643444,0.6749715209007263,walking
1783087310466283500,1.352283447265625,1.0121196718670429,-1.2103026953481135,-0.4615513435781002,0.1099867671728134,-0.1183360964059829,0.6645761132240295,walking
1783087310476327400,1.362327392578125,1.0830271455220877,-0.9815658359102905,-0.7294061614394187,0.1613935083150863,-0.142409473657608,0.6771217584609985,walking
1783087310486372400,1.372372314453125,1.1784645186692475,-0.9572091010279952,-1.142515837931633,0.2303746044635772,-0.0930379480123519,0.6829186677932739,walking
1783087310496416500,1.38241650390625,1.0524356079034507,-1.1542856245718895,-1.5665484749764202,0.2676918804645538,0.0007117111235857,0.6633173227310181,walking
1783087310506460400,1.39246044921875,0.7168022620625794,-1.4126476608142255,-1.7987988954931498,0.2707460224628448,0.0444297827780246,0.617182731628418,walking
1783087310516505600,1.402505615234375,0.6750226832143962,-1.6519956383764742,-1.5396429323941467,0.2827414274215698,-0.0150564461946487,0.5821983814239502,walking
1783087310526549500,1.412549560546875,1.034260045874119,-1.6359214325405655,-0.9852782805621624,0.3132469952106476,-0.1644057929515838,0.560604453086853,walking
1783087310536594700,1.4225947265625,1.4329703178748487,-1.4946286094084382,-0.5275245757013559,0.3359775841236114,-0.297573447227478,0.5589330792427063,walking
1783087310546638600,1.432638671875,1.5832675545871258,-1.3219259180121123,-0.3192196789175271,0.334999531507492,-0.3815146386623382,0.5688267946243286,walking
1783087310556683500,1.44268359375,1.7573967716552317,-1.1692984847865997,-0.1073831008762121,0.3234957456588745,-0.4204463064670563,0.5809305906295776,walking
1783087310566727700,1.452727783203125,1.9968571235507728,-0.9983793158061802,0.0484217933416366,0.314367264509201,-0.4371817111968994,0.5974240303039551,walking
1783087310576771600,1.462771484375,2.185197236800939,-0.7891882838375865,0.2610585818499326,0.2862623929977417,-0.427604466676712,0.6303087472915649,walking
1783087310586816500,1.47281640625,2.194764837221801,-0.5107146029368043,0.3784118725985288,0.2578265368938446,-0.398313045501709,0.6988894939422607,walking
1783087310596860700,1.482860595703125,2.0093093394972383,-0.2512798228964209,0.4068032698243856,0.2589226961135864,-0.3681101500988006,0.8166425228118896,walking
1783087310606905300,1.4929052734375,1.7934471592016517,-0.0461705072835087,0.4147767329216003,0.3137232959270477,-0.3658114075660705,0.9507477283477784,walking
1783087310616949500,1.502949462890625,1.6441396641790866,0.004862053078413,0.4324953449636697,0.4001902937889099,-0.3865987062454223,1.0770127773284912,walking
1783087310626993400,1.512993408203125,1.5846084478020668,-0.0026595745980739,0.5950017826467752,0.4682688415050506,-0.4144850969314575,1.179072618484497,walking
1783087310637038600,1.52303857421875,1.515097396941483,-0.0131641636081039,0.9150006292432546,0.5032334923744202,-0.4624270498752594,1.26379656791687,walking
1783087310647082500,1.53308251953125,1.37183765765056,-0.0412771822839975,1.3302899878621102,0.5190731287002563,-0.5485974550247192,1.3230822086334229,walking
1783087310657127700,1.543127685546875,1.1212573613256216,-0.2137564401879906,1.6655705747425555,0.5300994515419006,-0.6560105085372925,1.3562736511230469,walking
1783087310667171600,1.553171630859375,0.9190829301208258,-0.4255377809107303,1.7842197505205868,0.5478505492210388,-0.7663038969039917,1.3653384447097778,walking
1783087310677215500,1.563215576171875,0.803707661446929,-0.5675947202831506,1.5380951184302567,0.565255343914032,-0.8552998304367065,1.3595993518829346,walking
1783087310687260700,1.5732607421875,0.6850375890113413,-0.5730833808273077,1.027987541475892,0.5901243686676025,-0.8647494912147522,1.3501522541046145,walking
1783087310697304600,1.5833046875,0.4716719017066061,-0.4812555764794349,0.274625919431448,0.6253425478935242,-0.7703713178634644,1.3552478551864624,walking
1783087310707349500,1.593349609375,0.1700939702026546,-0.2225574401505291,-0.4504191241890192,0.6576941013336182,-0.5945533514022827,1.3605929613113403,walking
1783087310717393700,1.6033935546875,-0.0966316974982619,-0.0929183760635554,-0.9647685764968394,0.6611372828483582,-0.3502053916454315,1.354347586631775,walking
1783087310727438300,1.613438232421875,-0.0927155469678342,-0.148550539175421,-1.1967431026816366,0.6340362429618835,-0.1085221692919731,1.3254196643829346,walking
1783087310737483000,1.62348291015625,0.1753472145557403,-0.3208798672147095,-1.2310469388216734,0.6056299209594727,0.1506377607583999,1.2858384847640991,walking
1783087310747527200,1.633527099609375,0.420308940346539,-0.4752747485041618,-1.4973364070624111,0.5815523266792297,0.4244358241558075,1.245375394821167,walking
1783087310757571800,1.64357177734375,0.5836418919816613,-0.5377591155983508,-1.7437316727876662,0.5609266757965088,0.6746145486831665,1.2184220552444458,walking
1783087310767616000,1.653615966796875,0.832252349538356,-0.6491014754943549,-1.7848410972893236,0.5362677574157715,0.8426080346107483,1.202877163887024,walking
1783087310777661200,1.6636611328125,1.1359382131069895,-0.717050976126641,-1.5872914032757282,0.5043348670005798,0.8901342749595642,1.2043341398239136,walking
1783087310787704800,1.673704833984375,1.3194077977113423,-0.7297051443859934,-1.2348276264041662,0.4527073204517364,0.83529132604599,1.2230240106582642,walking
1783087310797749000,1.6837490234375,1.3200367432646452,-0.8372285305157303,-0.8289151679396629,0.40727698802948,0.7113699316978455,1.243817687034607,walking
1783087310807794200,1.693794189453125,1.1027896844819187,-1.0072276620417833,-0.4200251549690961,0.3924043476581573,0.5716387033462524,1.2534526586532593,walking
1783087310817838000,1.703838134765625,0.7862535455599426,-1.190504938944429,-0.159275200676918,0.3907825052738189,0.4368657767772674,1.2585108280181885,walking
1783087310827883000,1.713883056640625,0.5476540482774377,-1.3196796003900468,0.0971995605140924,0.3836569488048553,0.3085272312164306,1.2510509490966797,walking
1783087310837927200,1.72392724609375,0.3964085709296167,-1.4698358211964369,0.2842933269649744,0.3575992286205292,0.1965426206588745,1.224419116973877,walking
1783087310847971000,1.73397119140625,0.3965762556467205,-1.6081605883032082,0.3609025193929672,0.3329299688339233,0.0930793955922126,1.1892988681793213,walking
1783087310858016000,1.74401611328125,0.4410222041599452,-1.757883824519813,0.4757569790631532,0.3232970535755157,-0.0049766013398766,1.146863579750061,walking
1783087310868060200,1.75406005859375,0.6027100189365446,-1.848446431237459,0.4428127408385277,0.3398091793060303,-0.0915145501494407,1.122857689857483,walking
1783087310878104800,1.764104736328125,0.6974700042787939,-1.8085576345719396,0.141617378911376,0.389893114566803,-0.1331541389226913,1.121961236000061,walking
1783087310888149000,1.77414892578125,0.7491857245992869,-1.7042216463066635,-0.2578156544059515,0.4514805674552917,-0.1351700276136398,1.146877646446228,walking
1783087310898193200,1.784193115234375,0.8524627783961594,-1.5505951190412044,-0.5620096136271954,0.5010672807693481,-0.1245354861021041,1.1923003196716309,walking
1783087310908237800,1.79423779296875,1.0064462293405083,-1.3361077342301606,-0.6015051731914282,0.5137107968330383,-0.1265946924686432,1.251760959625244,walking
1783087310918282000,1.804281982421875,1.1641624370723962,-1.0485013371944427,-0.4638017528533935,0.4798431396484375,-0.1470538973808288,1.341120362281799,walking
1783087310928327200,1.8143271484375,1.3166802724435924,-0.8125880833212286,-0.239714765048027,0.4337640702724457,-0.1835962682962417,1.452458739280701,walking
1783087310938370800,1.824370849609375,1.526525968928635,-0.6015802842542529,-0.0661760612189769,0.4182751476764679,-0.2387162446975708,1.569271683692932,walking
1783087310948416000,1.834416015625,1.6870967623740434,-0.4051625899452716,0.0383259312629699,0.4678576588630676,-0.2964785099029541,1.6841758489608765,walking
1783087310958460200,1.844460205078125,1.717439293667674,-0.212855838086456,-0.0932592984557151,0.5363768339157104,-0.322259783744812,1.7874648571014404,walking
1783087310968504000,1.854504150390625,1.5968585653051732,0.0442657696407288,-0.220904266116023,0.5686353445053101,-0.3190135955810547,1.8873330354690552,walking
1783087310978549000,1.864549072265625,1.504183204217255,0.3431623531062155,-0.2227162839740514,0.5496696829795837,-0.3027518093585968,1.9764459133148191,walking
1783087310988593200,1.87459326171875,1.4789596233725546,0.6166361798930913,-0.0588444031566381,0.4952302575111389,-0.2708362638950348,2.052282333374023,walking
1783087310998637800,1.884637939453125,1.4404010523974895,0.8982629179973155,0.2329161909490823,0.4396612644195556,-0.2289239913225174,2.1185197830200195,walking
1783087311008682000,1.894681884765625,1.1834051899418234,1.073968152210489,0.5180360318660736,0.3913019895553589,-0.191013216972351,2.1670539379119873,walking
1783087311018726100,1.90472607421875,0.9175548437707126,1.0813188072342426,0.8939578412145376,0.3370592594146728,-0.1762992441654205,2.194937944412231,walking
1783087311028770800,1.914770751953125,0.7221887774065137,0.8842698292843997,1.258839785632491,0.2838352620601654,-0.1719725430011749,2.194075584411621,walking
1783087311038815000,1.92481494140625,0.4430389508098363,0.6435566277835518,1.290114044818282,0.2390752732753753,-0.165261372923851,2.1772024631500244,walking
1783087311048860200,1.934860107421875,0.3036664282158017,0.4599270303118973,1.1557920836120843,0.1814597696065902,-0.1636184155941009,2.135651111602783,walking
1783087311058903800,1.94490380859375,0.2935977464050054,0.0904340849671512,0.9848317058384418,0.1089759767055511,-0.161390945315361,2.0496935844421387,walking
1783087311068948000,1.954947998046875,0.3340780061576515,-0.5006376647543161,0.5866138935297728,0.0510243698954582,-0.15582837164402,1.9286576509475708,walking
1783087311078993200,1.9649931640625,0.2629231336127966,-0.948531873575598,-0.0805640675336122,0.0435094609856605,-0.1435892879962921,1.7952942848205566,walking
1783087311089037000,1.975037109375,0.4586021383836865,-1.2242607127476484,-0.6015501813769341,0.1015888601541519,-0.1311216503381729,1.6566482782363892,walking
1783087311099082000,1.98508203125,0.8413958062630146,-1.4089493908181785,-0.7575041286766528,0.1710305213928222,-0.1227888762950897,1.543527364730835,walking
1783087311109126100,1.995126220703125,0.8626001415289938,-1.4705895621731877,-0.6685778909891843,0.201221153140068,-0.1000825390219688,1.4489718675613403,walking
1783087311119171000,2.005171142578125,0.6326422158636152,-1.558639601548016,-0.390136797183752,0.2136216312646865,-0.0724959224462509,1.3454982042312622,walking
1783087311129215000,2.015215087890625,0.5501886813215912,-1.6728870352357623,0.0814607241123914,0.2079144418239593,-0.064899705350399,1.2519900798797607,walking
1783087311139259100,2.025259033203125,0.5792093894269317,-1.6947051915511488,0.5312725300580263,0.1591397076845169,-0.0660336837172508,1.169405817985535,walking
1783087311149303800,2.0353037109375,0.559004732722789,-1.7795275010511278,0.7603022349625825,0.0726619735360145,-0.0911979153752327,1.0898075103759766,walking
1783087311159348000,2.045347900390625,0.5503579004086554,-2.033604553450644,0.721716191458702,-0.0034341244027018,-0.1649166047573089,1.0177676677703855,walking
1783087311169393200,2.05539306640625,0.698425186111778,-2.1905811217963693,0.5484335082173347,-0.0186136085540056,-0.2900696098804474,0.9960649609565736,walking
1783087311179436800,2.065436767578125,0.8649382290877401,-2.225022320580482,0.2509317401111126,0.0518387183547019,-0.445547342300415,0.9959205985069276,walking
1783087311189481000,2.07548095703125,0.7982907509647309,-2.3140143169805407,-0.1154617779135704,0.1736753731966018,-0.5729659795761108,0.9679757356643676,walking
1783087311199526100,2.085526123046875,0.4906185942389071,-2.3105932564906775,-0.4638245492070913,0.2888379096984863,-0.6085689663887024,0.92701256275177,walking
1783087311209570000,2.095570068359375,0.1025321537137031,-2.042267898508161,-0.7620569696754217,0.3621967136859894,-0.5592921376228333,0.9092022180557252,walking
1783087311219615000,2.105614990234375,-0.0410023108653724,-1.6173282296210527,-0.9236205735504628,0.3784483969211578,-0.4693821668624878,0.9376381635665894,walking
1783087311229659100,2.1156591796875,0.1182999239489436,-1.0304480863705276,-0.93800448821187,0.3543383181095123,-0.3291557431221008,1.0004453659057615,walking
1783087311239703000,2.125703125,0.0258113176047801,-0.3475886451158672,-1.145816048520803,0.313939481973648,-0.0771796926856041,1.101743221282959,walking
1783087311249748000,2.135748046875,-0.230102594833076,0.4216189269665628,-1.802037146762013,0.2949361801147461,0.2503514885902405,1.1993284225463867,walking
1783087311259792100,2.145792236328125,0.6176974524490535,0.9945137264192104,-2.509796709060669,0.2845602333545685,0.5621426701545715,1.230315923690796,walking
1783087311269837000,2.155837158203125,1.742457561198622,0.9717248253755272,-2.7898247797966,0.2424693703651428,0.7781537175178528,1.2572565078735352,walking
1783087311279881000,2.165880859375,1.6153642360717058,0.9375222576528788,-2.600976278632879,0.1836854070425033,0.9113823771476746,1.281239628791809,walking
1783087311289925000,2.175925048828125,1.0891578302968292,0.8609105079416185,-2.25949216093719,0.1798300743103027,0.9449810981750488,1.2379661798477173,walking
1783087311299969800,2.1859697265625,0.7672692244309931,0.4235705724909901,-1.3761106587946417,0.2136218547821045,0.846638560295105,1.1456005573272705,walking
1783087311310014000,2.196013916015625,0.2133545083235949,0.0775376323845237,-0.4768284076869487,0.2161282002925872,0.7379717826843262,1.0048307180404663,walking
1783087311320059100,2.20605908203125,-0.5705667218312621,0.0586406242128461,-0.3164800248205661,0.1765746623277664,0.6103752255439758,0.8684399127960205,walking
1783087311330103000,2.21610302734375,-0.6867470963429659,0.2807945250637829,0.0504255343794822,0.1225341260433197,0.3809261322021484,0.7896713614463806,walking
1783087311340148000,2.22614794921875,-0.0283923470739275,0.675751801206544,0.7370990540295839,0.0926073938608169,0.1166201680898666,0.7600263357162476,walking
1783087311350192000,2.236192138671875,0.3694504944425076,1.1249122305713593,0.9995675026774404,0.0851025208830833,-0.0988866835832595,0.7544685006141663,walking
1783087311360236000,2.246236083984375,0.3358654740963131,1.371576814757287,0.9935621247828006,0.0922959893941879,-0.2498484998941421,0.7594643235206604,walking
1783087311370281000,2.256281005859375,0.3288635594449937,1.4144155472695827,1.2870640095978974,0.1074180081486702,-0.3663367927074432,0.7904371023178101,walking
1783087311380325000,2.2663251953125,0.5733145592346787,1.546377209085226,1.712174505007267,0.1138103976845741,-0.4111716449260711,0.8349302411079407,walking
1783087311390370000,2.2763701171875,0.6881882350619882,1.7399638446867465,1.753157672780752,0.0824419632554054,-0.351433664560318,0.8781572580337524,walking
1783087311400414000,2.2864140625,0.6056622198056429,1.877937898659706,1.5553279927819967,0.0587629973888397,-0.263683021068573,0.915477216243744,walking
1783087311410458000,2.2964580078125,0.6288223653145134,1.8912173592105503,1.7568033358067272,0.0109352115541696,-0.212702140212059,0.9526139497756958,walking
1783087311420503000,2.3065029296875,0.752319127254188,1.6542026469014584,1.7417933982014655,-0.0686291232705116,-0.211256057024002,0.9423794746398926,walking
1783087311430547000,2.316546875,1.076469029115513,1.218160934567824,1.477901638752222,-0.1292614638805389,-0.2104100435972213,0.9062963724136353,walking
1783087311440592100,2.326592041015625,1.1409300300449132,0.8818963781513273,0.9595856209009884,-0.161983460187912,-0.1856442391872406,0.8406691551208496,walking
1783087311450636000,2.336635986328125,0.8574250769786537,0.366195292038843,0.4057417780727148,-0.1775944828987121,-0.1360137611627578,0.7347032427787781,walking
1783087311460680000,2.346679931640625,0.6628329906616359,-0.1815652122877538,0.1142588318645954,-0.1789753437042236,-0.0839729309082031,0.6253370642662048,walking
1783087311470725000,2.35672509765625,0.7192611995220184,-0.418705012281239,-0.0899257701188325,-0.1610211282968521,-0.0368501842021942,0.5226809978485107,walking
1783087311480769000,2.36676904296875,0.8883817946478724,-0.6382494612861425,-0.1700724890232086,-0.1381823867559433,0.0044197579845786,0.404901921749115,walking
1783087311490814000,2.37681396484375,1.0218474312856791,-0.8208000313494354,-0.1541021819531917,-0.1344091892242431,0.0436280742287635,0.2954119741916656,walking
1783087311500858000,2.386858154296875,1.0457075417574495,-0.8279680963478981,-0.0813777220040559,-0.1484925150871276,0.0645908787846565,0.2109410315752029,walking
1783087311510902000,2.396902099609375,1.0483627324413507,-0.6181243726242334,0.0751928958892822,-0.167283147573471,0.0591746903955936,0.169480562210083,walking
1783087311520947000,2.406947021484375,0.9212884773410857,-0.3602851912122219,0.2309773318409919,-0.1694251149892807,-0.0091540347784757,0.1706699281930923,walking
1783087311530991000,2.4169912109375,0.8628653683364391,-0.1489851312004029,0.3860656022220849,-0.1517210006713867,-0.0968061760067939,0.1980275213718414,walking
1783087311541036000,2.4270361328125,0.8357097965158522,-0.0830493084780871,0.3312485548853874,-0.1268148422241211,-0.1741787195205688,0.2389251589775085,walking
1783087311551080000,2.437079833984375,0.6167587102942168,-0.0921042101364582,0.3195493492633104,-0.0897590145468711,-0.2517044246196747,0.2885777354240417,walking
1783087311561124000,2.4471240234375,0.4183537876907736,-0.1485323459316045,0.4686784189790487,-0.0493665821850299,-0.3195599019527435,0.3294942677021026,walking
1783087311571169000,2.4571689453125,0.4352143946640193,-0.1955904497046023,0.6983131040394306,-0.018242897465825,-0.3778292834758758,0.3566234707832336,walking
1783087311581213000,2.467212890625,0.5201595998913049,-0.1090090215776115,0.8215987074464559,-0.0113623533397912,-0.4162232875823974,0.3824646472930908,walking
1783087311591258000,2.477258056640625,0.657581426808983,0.0338479821313172,0.7139034718811511,-0.0244338437914848,-0.4145727753639221,0.4131795763969421,walking
1783087311601302300,2.48730224609375,0.7347980105455965,0.0996435196001082,0.4042237747251987,-0.0566525012254715,-0.3603848814964294,0.445880264043808,walking
1783087311611347000,2.497346923828125,0.6512819613385945,0.0718341600459069,0.0929302126318216,-0.0814495012164115,-0.250379741191864,0.4876888990402221,walking
1783087311621391000,2.50739111328125,0.6034230625767261,-0.0662310793418437,-0.0625520255029201,-0.0912302285432815,-0.1287297457456588,0.5139806866645813,walking
1783087311631435000,2.51743505859375,0.6665046649117022,-0.2621087484899908,-0.0104079967677593,-0.0885875299572944,-0.0157080590724945,0.5112084746360779,walking
1783087311641480000,2.52747998046875,0.7292904261052608,-0.5047269798945635,0.141266665777564,-0.0879307985305786,0.0778842121362686,0.4779658317565918,walking
1783087311651524000,2.537524169921875,0.7602673097796737,-0.7233100365214049,0.2856435725301504,-0.0761258602142334,0.1451732665300369,0.4212019443511963,walking
1783087311661569000,2.547569091796875,0.7525771936684846,-0.8892814469013363,0.3237181593805551,-0.0705348253250122,0.2081612944602966,0.351146936416626,walking
1783087311671613000,2.557613037109375,0.6759020963974297,-0.9411126833602784,0.3694038057565689,-0.1009570062160492,0.2284376323223114,0.2581368088722229,walking
1783087311681657000,2.567656982421875,0.7056781529147178,-0.9828201468203216,0.526058594802022,-0.1447537541389465,0.1829575002193451,0.1906187534332275,walking
1783087311691702000,2.577701904296875,0.5931991171389818,-1.0966614108599722,0.6931377472281456,-0.1647649407386779,0.0894511267542839,0.118573360145092,walking
1783087311701746000,2.587745849609375,0.6130586136672646,-1.2440180640757084,0.6472860966354608,-0.164029374718666,-0.02007164247334,0.0511349327862262,walking
1783087311711791000,2.597791015625,0.6869485371991991,-1.2021128130212426,0.4770698152273893,-0.1570787727832794,-0.0860015079379081,0.0157534256577491,walking
1783087311721835300,2.607835205078125,0.6782857035983354,-1.0735504382550716,0.2969008796036243,-0.1664176732301712,-0.1185456067323684,0.0015627725515514,walking
1783087311731879000,2.61787890625,0.7728179445993155,-0.9519207853615284,0.217383106252551,-0.1745039075613021,-0.1193695664405822,0.00343943038024,walking
1783087311741923300,2.62792333984375,1.0108934910729528,-0.7435029297225176,0.1537427009910345,-0.1638797521591186,-0.0817233845591545,0.0176521874964237,walking
1783087311751967500,2.637967529296875,1.1565913442309943,-0.5165152520395815,-0.0445949285298585,-0.1361151039600372,-0.0286666061729192,0.0398877598345279,walking
1783087311762012400,2.648012451171875,1.2766205031253397,-0.3840127613455057,-0.1728723488748073,-0.1198671534657478,0.0330159328877925,0.0759951621294021,walking
1783087311772056300,2.658056396484375,1.3606424560278654,-0.334942879358679,-0.2006517516821622,-0.1298230141401291,0.0612129718065261,0.1239253580570221,walking
1783087311782100500,2.6681005859375,1.4192733625642957,-0.384220120485872,-0.256178993114829,-0.1447260677814483,0.0676682144403457,0.1721149981021881,walking
1783087311792145400,2.6781455078125,1.4369643559470773,-0.5139850029096007,-0.4359720811635255,-0.1394054442644119,0.0699134990572929,0.1939194053411483,walking
1783087311802189300,2.688189208984375,1.4763392117410898,-0.749533734319359,-0.6536562161892652,-0.1017139852046966,0.0690735355019569,0.1880865544080734,walking
1783087311812234500,2.698234375,1.5735188985109327,-0.911321940730512,-0.8418307636141776,-0.0535951890051364,0.0726596117019653,0.1516890525817871,walking
1783087311822278400,2.7082783203125,1.6426137697860597,-1.0568886417895555,-0.959109235560894,-0.0208510905504226,0.0944980606436729,0.0947748944163322,walking
1783087311832322300,2.718322265625,1.6859078448504208,-1.0549892379090189,-1.072165705898404,-0.0332050882279872,0.1710363328456878,0.0435067638754844,walking
1783087311842367500,2.728367431640625,1.5531109012544153,-0.8772579046957194,-1.3771288959264754,-0.0723524913191795,0.2805138230323791,0.0143238455057144,walking
1783087311852411400,2.738411376953125,1.4019031255684793,-0.699679423956573,-1.5842863762408494,-0.107530876994133,0.3788278698921203,-0.0240293312817811,walking
1783087311862456600,2.74845654296875,1.1864810902558267,-0.6361141297578812,-1.7042185775667429,-0.1229452490806579,0.4514568150043487,-0.0735795721411705,walking
1783087311872500500,2.75850048828125,0.8448351330619305,-0.6607384295351802,-1.833769086587429,-0.1148863658308982,0.4421820640563965,-0.1478681415319442,walking
1783087311882545400,2.76854541015625,0.8021116244271397,-0.8826252769477665,-1.645503938269615,-0.0736260041594505,0.302455872297287,-0.2604482173919678,walking
1783087311892589300,2.77858935546875,0.8947929768644273,-1.2899560777775942,-1.2278759075701235,0.0032816545572131,0.0710507631301879,-0.4134795367717743,walking
1783087311902633500,2.788633544921875,0.7651683796942234,-1.5698502930007874,-0.9434417108297348,0.0944144949316978,-0.1709578782320022,-0.5653204917907715,walking
1783087311912678400,2.798678466796875,0.5374093523126096,-1.502665200869739,-0.8133259691417217,0.1790966540575027,-0.3393513560295105,-0.6882914900779724,walking
1783087311922722300,2.808722412109375,0.2525138947360217,-1.230162411072105,-0.6999316451519727,0.2516408860683441,-0.4192667007446289,-0.8033350110054016,walking
1783087311932767500,2.818767578125,-0.0081494772512465,-0.9485827269800008,-0.588079289907217,0.3330180644989013,-0.4546743333339691,-0.9004773497581482,walking
1783087311942811400,2.828811279296875,-0.1286245532821864,-0.4167968405723571,-0.5097662161707878,0.4426585435867309,-0.4657189846038818,-0.9350824356079102,walking
1783087311952855300,2.838855224609375,-0.1500535641495138,0.3074284110978245,-0.4392950881063938,0.5349500179290771,-0.4663682579994201,-0.915222465991974,walking
1783087311962900500,2.848900390625,-0.026111396529898,1.0881078828524795,-0.4966524675756693,0.5512136816978455,-0.465930163860321,-0.8273261785507202,walking
1783087311972944400,2.8589443359375,-0.0428504229500889,1.87592568205446,-0.1777116055995226,0.5422868728637695,-0.4622906446456909,-0.6662458181381226,walking
1783087311982989600,2.868989501953125,-0.1639297484844923,2.199605847512186,0.0801046333283185,0.4729957282543182,-0.5060205459594727,-0.4768241941928863,walking
1783087311993033500,2.879033447265625,-0.1907762543559074,2.232236489742994,0.3414414475977421,0.4255030751228332,-0.6095090508460999,-0.3166366517543793,walking
1783087312003077600,2.88907763671875,0.1419935187473893,2.159010363882035,0.6300766031593084,0.4251187741756439,-0.7313539981842041,-0.1617328375577926,walking
1783087312013122600,2.89912255859375,0.1892668727062642,2.2180860915765166,0.6909545579701661,0.4529465138912201,-0.8490740060806274,-0.0242194756865501,walking
1783087312023166500,2.90916650390625,-0.1651920235052704,2.1314329133875667,0.8412035716265439,0.4800505638122558,-0.9317361116409302,0.0586583651602268,walking
1783087312033211400,2.91921142578125,-0.709525549057871,1.8334303561523555,1.0597761799246073,0.4735575020313263,-1.0051751136779783,0.076955609023571,walking
1783087312043255300,2.92925537109375,-1.1588326203517616,1.5204342279247938,1.3565356052309274,0.4371579587459564,-1.0248942375183103,0.0429667532444,walking
1783087312053299500,2.939299560546875,-1.5089612322740256,1.4165657110407948,1.274822952184081,0.3723384439945221,-0.9420148730278016,-0.0283497720956802,walking
1783087312063344400,2.949344482421875,-1.9200396951995788,1.260960138787329,0.6988403427839279,0.2929189801216125,-0.7287648916244507,-0.1553391516208648,walking
1783087312073388300,2.95938818359375,-2.324048073608428,0.8701620281506329,-0.1918541127204895,0.1949463337659835,-0.3890445232391357,-0.3508335947990417,walking
1783087312083433500,2.96943359375,-2.640225462220609,0.2920833232540637,-1.2951847722113132,0.1020851135253906,0.063815101981163,-0.5889167189598083,walking
1783087312093477400,2.979477294921875,-2.925041644015908,-0.1556834597952663,-2.3888936168760058,0.0428620278835296,0.5680244565010071,-0.8160308599472046,walking
1783087312103521300,2.989521240234375,-3.2165245902240276,-0.228519125033915,-2.925959343382716,0.0422042235732078,0.989207923412323,-0.9417120814323424,walking
1783087312113566500,2.99956640625,-2.911730034761131,0.1717977053806185,-2.792332378703356,0.0667777210474014,1.2895179986953735,-0.9589134454727172,walking
1783087312123610600,3.009610595703125,-2.2745696108207105,0.4387607255013659,-2.35052326194942,0.0540416911244392,1.4542943239212036,-0.9445584416389464,walking
1783087312133655600,3.019655517578125,-1.7372987171307206,0.4641293773725629,-1.7393308074802158,-0.0108723919838666,1.4789414405822754,-0.8893235325813293,walking
1783087312143699500,3.029699462890625,-0.979181278861314,0.6127220386566594,-1.0643500637114047,-0.0670680180191993,1.3598997592926023,-0.7752352952957153,walking
1783087312153744400,3.039744384765625,-0.4167370732091367,0.8278351176179946,-0.4093190520375966,-0.0796401873230934,1.1514244079589844,-0.6376060843467712,walking
1783087312163788500,3.04978857421875,-0.165129844989255,0.6529029136039316,0.0961573579847812,-0.0281663406640291,0.8895065188407898,-0.4988940358161926,walking
1783087312173832400,3.05983251953125,0.1513637699652463,0.5822196771588176,0.5595692347377539,0.0784070864319801,0.5534824728965759,-0.3192631304264068,walking
1783087312183877400,3.06987744140625,0.3775232531957328,0.6102641971757635,1.1171586938351392,0.1942487359046936,0.2356486022472381,-0.1218784227967262,walking
1783087312193921300,3.07992138671875,0.1029426342107355,0.3975635496510192,1.2201292389661074,0.2838037014007568,0.0010964712128043,0.0502846240997314,walking
1783087312203966500,3.089966552734375,-0.5691594123166054,0.2668285800861195,1.285876845639944,0.3195161521434784,-0.1969217956066131,0.1465349942445755,walking
1783087312214010400,3.10001025390625,-0.7807558249264955,0.1072893581781536,1.6958552383691072,0.3055835962295532,-0.3417258262634277,0.1644050776958465,walking
1783087312224054300,3.11005419921875,-0.5811153691787272,-0.1463285522770136,1.993790137195587,0.2544455826282501,-0.4249091446399688,0.1460138112306594,walking
1783087312234099500,3.120099365234375,-0.2649564660713076,-0.1850723801584914,2.1467980941712854,0.1647104918956756,-0.4200274646282196,0.1071072742342948,walking
1783087312244143400,3.130143310546875,0.0015745558403432,-0.0023491934746503,2.11605574990511,0.0456357672810554,-0.3416900336742401,0.0694318041205406,walking
1783087312254188500,3.1401884765625,0.0315385361451655,0.1662770057303831,2.087441065317392,-0.0767324864864349,-0.2132737934589386,0.0349791273474693,walking
1783087312264232400,3.150232421875,-0.0368890303276479,0.0570829829746857,1.9354910929620264,-0.167467713356018,-0.050040915608406,0.0074947732500731,walking
1783087312274276600,3.160276611328125,-0.3966162223309278,-0.1602121892660856,1.7675655528396368,-0.2117738872766494,0.1067975014448165,-0.0026362675707787,walking
1783087312284321500,3.170321533203125,-0.8485317225575446,-0.2824961413498967,1.7031746214717625,-0.2003041803836822,0.2035269737243652,-0.0331805944442749,walking
1783087312294365400,3.180365478515625,-0.6113614543605596,-0.5024166936581954,1.8220155204296111,-0.1572870016098022,0.2383707612752914,-0.0927918031811714,walking
1783087312304410400,3.190410400390625,-0.2575289464190602,-0.6638001551933587,1.7851690140694378,-0.1291144788265228,0.2767589092254638,-0.1742749363183975,walking
1783087312314454500,3.20045458984375,-0.20643734934628,-0.8613611012533307,1.6721178044289349,-0.1425992846488952,0.3141995072364807,-0.2785859405994415,walking
1783087312324498400,3.21049853515625,-0.237831143258512,-1.2075098497591912,1.8775608820408585,-0.1928922832012176,0.3342626988887787,-0.3949349224567413,walking
1783087312334543400,3.22054345703125,-0.2200932419940829,-1.5553661328352988,2.142675461283326,-0.2527095675468445,0.3324016332626343,-0.4960888624191284,walking
1783087312344587500,3.23058740234375,-0.3350640945855528,-1.724517269229889,2.160778688728809,-0.2732715606689453,0.3033835589885711,-0.5591850280761719,walking
1783087312354632400,3.240632568359375,-0.4082085335124283,-1.681473515664786,2.033296802675724,-0.2199096083641052,0.2540823817253113,-0.5569650530815125,walking
1783087312364676400,3.25067626953125,-0.3246064865224063,-1.5165405814871191,1.951827310734987,-0.1238586977124214,0.188978761434555,-0.5394494533538818,walking
1783087312374720300,3.26072021484375,-0.1889281422711908,-1.4305179562866688,2.020840056684613,-0.0593223012983799,0.0927803590893745,-0.5400679707527161,walking
1783087312384765400,3.270765380859375,-0.0550391656547784,-1.421714472106099,2.181228771561384,-0.050065416842699,-0.0365267619490623,-0.5501956939697266,walking
1783087312394809600,3.2808095703125,-0.0660106415241956,-1.378207631073892,2.1387042195647954,-0.0901289656758308,-0.1464526355266571,-0.5323030352592468,walking
1783087312404854500,3.2908544921875,-0.2893114473879337,-1.1692194282010198,1.7821616489470005,-0.1332311630249023,-0.1664060950279235,-0.4834606945514679,walking
1783087312414898400,3.3008984375,-0.7741336303077637,-1.041059496755898,1.087173305416107,-0.156160295009613,-0.099794864654541,-0.4515506327152252,walking
1783087312424943400,3.310943359375,-1.0752861029412597,-1.0371529177714138,0.2926104889333248,-0.1610541194677353,-0.0239917151629924,-0.4100242257118225,walking
1783087312434987500,3.320987548828125,-0.8867936486735939,-0.7318518010258674,-0.2476666008353233,-0.1399009078741073,0.0445951670408248,-0.3460932672023773,walking
1783087312445031400,3.331031494140625,-0.5531323335580527,-0.5532324329316616,-0.7934586546331643,-0.1037799194455146,0.0915139392018318,-0.2709811925888061,walking
1783087312455076400,3.341076416015625,-0.3487769050523638,-0.6177078277125955,-1.391141639187932,-0.033582042902708,0.1668178141117096,-0.2124798595905304,walking
1783087312465120500,3.35112060546875,-0.4247896659571677,-0.9057647449947892,-1.993180480864644,0.0485101640224456,0.2744630575180053,-0.2063814997673034,walking
1783087312475165400,3.36116552734375,-0.7426401754133403,-1.2950121921233833,-2.1869646848648787,0.0915394052863121,0.3990083634853363,-0.2439773678779602,walking
1783087312485209300,3.371209228515625,-1.1737602134358138,-1.7118689461894332,-2.245572941178083,0.0655765160918235,0.5113527774810791,-0.3250149488449096,walking
1783087312495253500,3.38125341796875,-1.6696850243240593,-2.13379978864938,-2.074554111215472,-0.0138168055564165,0.5653564929962158,-0.4459567666053772,walking
1783087312505298400,3.39129833984375,-1.9483821387171745,-2.516570148718357,-1.691646096241474,-0.1405616998672485,0.5922877192497253,-0.6034209132194519,walking
1783087312515342600,3.401342529296875,-2.1454963639229536,-2.8585660153284667,-1.660961035120487,-0.2806311547756195,0.652705192565918,-0.7711428999900818,walking
1783087312525387500,3.411387451171875,-2.4534441227197648,-3.0177316181510685,-2.3190794914156196,-0.3620732724666595,0.8760432004928589,-0.8846260905265808,walking
1783087312535431400,3.421431396484375,-3.25434140292108,-2.5427353943273423,-3.965129957652091,-0.2984274625778198,1.2652544975280762,-0.8754338026046753,walking
1783087312545475600,3.4314755859375,-3.3688977564275264,-1.423093213113397,-5.767404420301318,-0.1592083424329757,1.7148858308792114,-0.7850112318992615,walking
1783087312555520500,3.4415205078125,-2.5371795137658713,-0.464569230094552,-6.670860742223263,-0.0154850864782929,2.105356216430664,-0.6589087843894958,walking
1783087312565564400,3.451564453125,-1.5804581962548196,0.2779546985279768,-6.613854660409689,0.1320558935403823,2.402336359024048,-0.5352781414985657,walking
1783087312575609300,3.461609375,-0.9676067225322128,1.0116549769647418,-6.133387019437551,0.2958255112171173,2.4903175830841064,-0.4236259758472442,walking
1783087312585653500,3.471653564453125,-0.525625756342709,1.6278050538413225,-4.450077958908677,0.4835826158523559,2.206348419189453,-0.3316824436187744,walking
1783087312595697400,3.481697509765625,0.3207685157947242,1.8066811731755732,-1.42081723100543,0.6151050329208374,1.6358280181884766,-0.2665555477142334,walking
1783087312605742300,3.491742431640625,0.5527895114697515,1.6077138674490152,0.876694571724534,0.619475245475769,1.066277027130127,-0.2781442999839782,walking
1783087312615786500,3.501786376953125,-0.3845325474359095,1.2817933757185935,1.7650614610642197,0.5224000215530396,0.5380589365959167,-0.3597678542137146,walking
1783087312625831400,3.51183154296875,-1.2027139937847853,1.0013000255584716,2.7240812647759913,0.3844921886920929,0.0255064480006694,-0.4997952878475189,walking
1783087312635875600,3.52187548828125,-1.8187579799383875,0.6103825628584251,3.898385741156339,0.2559641599655151,-0.4489469826221466,-0.6855157017707825,walking
1783087312645919500,3.53191943359375,-2.4404677367687224,0.4518675328990444,4.424944686695933,0.153872400522232,-0.7716976404190063,-0.8657180070877075,walking
1783087312655964400,3.54196435546875,-3.1544545030191538,0.7619989558778703,4.055848923975229,0.0875344052910804,-0.9460102915763856,-1.0489307641983032,walking
1783087312666008600,3.552008544921875,-2.986476355926692,1.0427489842128008,3.6031928345143793,0.0528070479631423,-1.0045630931854248,-1.196450114250183,walking
1783087312676053500,3.562053466796875,-1.9982623141735791,1.5703098733365537,3.027807021963596,0.0400835908949375,-0.9533228874206544,-1.2921438217163086,walking
1783087312686097400,3.572097412109375,-0.8295037814825773,2.1861019305557012,2.04641522744596,0.0540654547512531,-0.7648150324821472,-1.353446125984192,walking
1783087312696141600,3.5821416015625,-0.0239349658062681,2.542994922046363,0.7992997818768024,0.0530082434415817,-0.4198459386825561,-1.3867937326431274,walking
1783087312706186500,3.5921865234375,0.3917890944354236,2.5514015158638355,-0.1213718787401914,0.0009082895703613,0.0194243695586919,-1.373740553855896,walking
1783087312716230400,3.60223046875,0.6712721715744584,2.5032205455407497,-0.3703478086084127,-0.0920395776629448,0.3980245590209961,-1.3126654624938965,walking
1783087312726275300,3.612275390625,0.8957313536930829,2.285303040150553,-0.1821235768228769,-0.1808930188417434,0.6650943756103516,-1.253965973854065,walking
1783087312736319500,3.622319580078125,0.97999990176782,1.94051067468971,-0.0318435835063457,-0.2544312179088592,0.8255868554115295,-1.2084720134735107,walking
1783087312746364700,3.63236474609375,0.7425003285512328,1.5274455679915844,-0.1215764614015817,-0.2723737359046936,0.9060207009315492,-1.1722549200057983,walking
1783087312756408600,3.64240869140625,0.407828923077695,1.049476027445495,-0.4833382279723882,-0.2194693386554718,0.9539785385131836,-1.14348304271698,walking
1783087312766452500,3.652452392578125,-0.0301567994631826,0.8069406520187854,-0.6741881320863962,-0.1478739827871322,0.913168489933014,-1.1153526306152344,walking
1783087312776497700,3.66249755859375,-0.3908523981072008,1.004274803585559,-0.2842711151331663,-0.0863575786352157,0.7675344944000244,-1.0462498664855957,walking
1783087312786541800,3.672541748046875,-0.6726327193379402,1.4473498486220835,0.3384580478727817,-0.0527655333280563,0.5097799301147461,-0.9574813842773438,walking
1783087312796586800,3.682586669921875,-0.7551807272303849,1.661073263323307,0.969607248699665,-0.042332250624895,0.1892953813076019,-0.8802165985107422,walking
1783087312806630700,3.692630615234375,-0.7332651018898934,1.553052156804502,1.3868693686962126,-0.0358615666627883,-0.1059029698371887,-0.8369516730308533,walking
1783087312816674800,3.7026748046875,-0.7765892067663371,1.279063950754702,1.3966776460051535,-0.0342250764369964,-0.3425309658050537,-0.8324373960494995,walking
1783087312826719700,3.7127197265625,-0.6141280695296824,1.035895976512879,1.1745213340014218,-0.0266265459358692,-0.516067624092102,-0.8389296531677246,walking
1783087312836763600,3.722763671875,-0.2704509718343615,0.9226149767044932,0.9432803827881812,-0.0201669242233037,-0.6248140335083008,-0.853837788105011,walking
1783087312846808600,3.73280859375,0.2278624512234702,0.8986560820333659,0.749152479916811,-0.0205866396427154,-0.6837841272354126,-0.8600069880485535,walking
1783087312856852700,3.742852783203125,0.6291865224517882,0.9303397988028824,0.5722171193867921,-0.0423536002635955,-0.7042893767356873,-0.8487027883529663,walking
1783087312866896600,3.752896728515625,0.7597151557896286,0.938383550657332,0.4259323331862688,-0.0831633433699607,-0.6662205457687378,-0.8284390568733215,walking
1783087312876941600,3.762941650390625,0.7200686434473842,0.8931179563242941,0.3290846548497677,-0.1335489153861999,-0.6080533862113953,-0.8064716458320618,walking
1783087312886985500,3.7729853515625,0.5350711186233907,0.7323262136045843,0.3624813130170106,-0.1735637038946151,-0.519614577293396,-0.7903006672859192,walking
1783087312897030700,3.78303076171875,0.2688312799443491,0.570030569127947,0.3691244042932987,-0.2021121829748153,-0.4118707776069641,-0.7761992812156677,walking
1783087312907074800,3.79307470703125,0.0381102609519846,0.4268270170036703,0.4111351615488529,-0.2152815163135528,-0.2774288058280945,-0.7546444535255432,walking
1783087312917118500,3.803118408203125,-0.3065369421508163,0.2422144729092717,0.3455366079568863,-0.2060131281614303,-0.1375780254602432,-0.7433967590332031,walking
1783087312927163600,3.81316357421875,-0.4830385874386876,0.106925931693241,0.333261648273468,-0.1890280097723007,0.0055807279422879,-0.7471513152122498,walking
1783087312937207800,3.823207763671875,-0.4081179326195269,-0.0867255858380347,0.3578957387924194,-0.1858689188957214,0.1286039501428604,-0.7506095170974731,walking
1783087312947252700,3.833252685546875,-0.2045074772622436,-0.2327768555436283,0.1923088707506656,-0.2044215649366378,0.2436951100826263,-0.7726189494132996,walking
1783087312957296600,3.843296630859375,-0.0207404988802038,-0.4408300425887108,-0.080040335920453,-0.2378604710102081,0.343203455209732,-0.8074652552604675,walking
1783087312967340800,3.8533408203125,0.024353921870701,-0.8513673113096505,-0.2031745481580495,-0.265289694070816,0.3853890001773834,-0.8479170799255371,walking
1783087312977385700,3.8633857421875,0.066986720014736,-1.346886610136926,-0.1611369028955697,-0.261792778968811,0.3768216073513031,-0.8934193253517151,walking
1783087312987429600,3.8734296875,-0.1065172412944957,-1.649561981488764,-0.1935679309010505,-0.2199057936668396,0.3681554198265075,-0.91988205909729,walking
1783087312997474600,3.883474609375,-0.3240835220942273,-1.6341262196868658,-0.2392886485904455,-0.1685401946306228,0.345751404762268,-0.921948790550232,walking
1783087313007518700,3.893518798828125,-0.4456982696795836,-1.4743778485402463,-0.1499205123543739,-0.1314181238412857,0.3002526462078094,-0.9074596166610718,walking
1783087313017562600,3.903562744140625,-0.4926080875556916,-1.304399321410805,0.0978156465858221,-0.1150288879871368,0.239655539393425,-0.8944051861763,walking
1783087313027607600,3.913607666015625,-0.5572142325768247,-1.384033853009343,0.3695563659697771,-0.1013714000582695,0.1491855680942535,-0.905531108379364,walking
1783087313037651500,3.9236513671875,-0.7434384861841797,-1.685529074665904,0.6075228260457516,-0.0791111811995506,0.0621019378304481,-0.9470341801643372,walking
1783087313047696600,3.933696533203125,-0.9761244485739616,-2.0019488937318326,0.7499930223941803,-0.0549296773970127,-0.0251634567975997,-1.0040069818496704,walking
1783087313057740800,3.94374072265625,-1.1825304529339074,-2.2166787089966236,0.8146317910432815,-0.037787914276123,-0.1476594507694244,-1.0620412826538086,walking
1783087313067784400,3.953784423828125,-1.013844011441618,-2.383957037256658,0.9442243856400252,-0.0259608179330825,-0.3055897057056427,-1.1097462177276611,walking
1783087313077829600,3.96382958984375,-0.6213946995317936,-2.448023558975756,1.0281401016891003,-0.0111373979598283,-0.4894110560417175,-1.1480637788772583,walking
1783087313087873800,3.973873779296875,-0.2279507688277401,-2.3072028834000227,1.0088310055851937,-0.0027252719737589,-0.652112603187561,-1.1779841184616089,walking
1783087313097918700,3.983918701171875,0.0793651766052469,-2.1205855022892353,0.8193786933094263,0.0011747435200959,-0.7545970678329468,-1.190540432929993,walking
1783087313107962600,3.993962646484375,0.2527572019726037,-1.8938292952746152,0.567418779194355,0.0277062188833951,-0.811521589756012,-1.181075096130371,walking
1783087313118937900,4.004937744140625,0.328306035160087,-1.6700336916312577,0.382809230774641,0.0799696892499923,-0.8228150010108948,-1.1501959562301636,walking
1783087313128677600,4.014677734375,0.1979907523119822,-1.466745161704719,0.1637713430523872,0.1270333379507064,-0.8159035444259644,-1.0822619199752808,walking
1783087313138722600,4.02472265625,0.1528375871111638,-1.1304907613560558,0.1094400334060192,0.1604515612125396,-0.8129564523696899,-0.9792314171791076,walking
1783087313148766700,4.0347666015625,0.3833985019046813,-0.8215340447124093,0.2245177804380655,0.1726754605770111,-0.8522819876670837,-0.8750160932540894,walking
1783087313158811600,4.044811767578125,0.6166819917961954,-0.6000519056431949,0.506388264170289,0.1698305308818817,-0.9099698662757874,-0.7854142785072327,walking
1783087313168855600,4.05485546875,0.7628941511519253,-0.3990416228469461,0.6651999389886856,0.1449675261974334,-0.9527008533477784,-0.7255935668945312,walking
1783087313178899700,4.064899658203125,0.9417769924879074,-0.2207441071182489,0.6772048495590687,0.0874870792031288,-0.9612939357757568,-0.6885461807250977,walking
1783087313188944600,4.074944580078125,0.9345181074008344,0.1280079557538032,0.3664513856917619,0.0070465626195073,-0.8760064840316772,-0.6357759237289429,walking
1783087313198988800,4.08498876953125,0.7285639384616166,0.5742226139903068,-0.185649997383356,-0.0704737976193428,-0.7874537110328674,-0.5553473830223083,walking
1783087313209033700,4.09503369140625,0.5706094649944454,0.7573950422789901,-0.4836117842167615,-0.09975166618824,-0.6845155358314514,-0.5064110159873962,walking
1783087313219077600,4.10507763671875,0.0924202903483062,0.4265810794185847,-0.9656716628164052,-0.0830301418900489,-0.5787685513496399,-0.5053508281707764,walking
1783087313229121800,4.115121826171875,-0.4538183381732553,-0.0418758057642728,-1.3671598750978708,-0.0393628254532814,-0.5000814199447632,-0.5254513025283813,walking
1783087313239166700,4.125166748046875,-0.4040768405351788,-0.3296100669633597,-1.5103765058994292,0.016899874433875,-0.4364621937274933,-0.5691996812820435,walking
1783087313249210600,4.135210693359375,-0.2829167048495262,-0.4431579740796238,-1.7423194679021834,0.0572281219065189,-0.3386125862598419,-0.6279633641242981,walking
1783087313259255600,4.145255615234375,-0.1328745388768613,-0.2995804740764201,-2.171694635018706,0.0696790143847465,-0.1666729152202606,-0.6758447289466858,walking
1783087313269299700,4.1552998046875,0.0727881728351116,-0.1077192009627819,-2.65845406961143,0.0557038113474845,0.0745239853858947,-0.7106213569641113,walking
1783087313279343600,4.165343505859375,0.3083141078911721,0.1178863016467541,-3.020595775410533,0.0304170101881027,0.3266706466674804,-0.7177138924598694,walking
1783087313289388500,4.175388427734375,0.5841679616823792,0.4038635631106794,-3.0862779156327247,0.0376600101590156,0.5300008654594421,-0.6949422359466553,walking
1783087313299432700,4.1854326171875,0.7706509758237748,0.716982002543658,-2.7538427813112736,0.0783015936613082,0.6356558799743652,-0.6437572240829468,walking
1783087313309477600,4.1954775390625,0.7816745472066104,1.0764882452726363,-2.0334774199396373,0.1379904896020889,0.5789675712585449,-0.539802610874176,walking
1783087313319521800,4.205521728515625,0.7128931988600641,1.4406056350588798,-1.0347340931266549,0.1987012326717376,0.3693013787269592,-0.3785095810890198,walking
1783087313329565700,4.215565673828125,0.7688699376258998,1.6912930450201034,-0.0246434428691864,0.2672325372695923,0.0337577424943447,-0.204674631357193,walking
1783087313339610600,4.225610595703125,0.8409544191710651,1.7472949182271955,0.73261167948246,0.3465638160705566,-0.3872486352920532,-0.0748439282178878,walking
1783087313349654800,4.23565478515625,0.756846030094102,1.605885921369493,1.2242957109957933,0.4613639116287231,-0.8191092610359192,-0.0027263211086392,walking
1783087313359699700,4.24569970703125,0.3355695598896592,1.2484662756562233,1.4677058234304188,0.571082592010498,-1.170543909072876,-0.0104892449453473,walking
1783087313369743600,4.25574365234375,-0.5862831272054463,0.7375532275378703,1.6325211225777865,0.6166372895240784,-1.3767225742340088,-0.092247225344181,walking
1783087313379787800,4.265787841796875,-1.916016723293811,0.2515545116519555,1.5940321097075938,0.591923177242279,-1.3776291608810425,-0.2297179996967315,walking
1783087313389832700,4.275832763671875,-3.264457723265886,-0.0479369324341416,0.9929355173170566,0.5256774425506592,-1.1855864524841309,-0.3962859809398651,walking
1783087313399876600,4.285876708984375,-4.060563385276496,-0.0785149164514616,0.0743348177552223,0.4507357478141784,-0.8552365899085999,-0.533383309841156,walking
1783087313409921500,4.295921630859375,-3.893979322890937,0.2323643657526001,-0.8262041554152965,0.3810104727745056,-0.4211165904998779,-0.6316310167312622,walking
1783087313419965700,4.305965576171875,-2.7342671432256695,0.3221956625210121,-1.5624854633212089,0.3159345388412475,-0.0200866255909204,-0.6830465793609619,walking
1783087313430009600,4.316009521484375,-1.652655417459458,0.3313625366538762,-2.082883548143506,0.209129512310028,0.3987497389316559,-0.7656548619270325,walking
1783087313440054500,4.326054443359375,-1.0405813578501344,0.1831695970107801,-2.72085879559815,0.078037180006504,0.7995794415473938,-0.8362666964530945,walking
1783087313450098700,4.3360986328125,-0.0588680762931704,0.055805967042502,-2.7102234198153017,-0.0350001603364944,1.1049034595489502,-0.8816805481910706,walking
1783087313460143600,4.3461435546875,0.5673093274705112,-0.0878960361232049,-2.071454391634464,-0.113477423787117,1.2645678520202637,-0.8935120105743408,walking
1783087313470187800,4.356187744140625,0.5111034561239183,-0.1692359834001399,-1.1474719990342854,-0.1361129730939865,1.294076919555664,-0.8618842959403992,walking
1783087313480860700,4.366860595703125,0.2633703659236431,-0.3132446961611509,0.4023801926851272,-0.0831080749630928,1.1627559661865234,-0.7512447237968445,walking
1783087313490903600,4.376903564453125,0.1611085535839199,-0.3082204017257318,0.4140507567346095,0.0416903123259544,0.9503260850906372,-0.5857985019683838,walking
1783087313500948700,4.38694873046875,-0.0252536106567829,-0.0764812734656967,0.8625994108766317,0.2075900584459304,0.6909669637680054,-0.3969796001911163,walking
1783087313510992600,4.39699267578125,-0.2293232079584151,0.1221451829339377,1.0888473761081694,0.3741572499275207,0.4249555170536041,-0.2015285938978195,walking
1783087313521037600,4.40703759765625,-0.6295036986421794,0.168928945011273,1.285229779908061,0.4704227745532989,0.2083534151315689,-0.039673913270235,walking
1783087313531081700,4.417081787109375,-1.06924543453753,0.0006258676802273,1.4271166234105823,0.4694692194461822,0.0577981695532798,0.0695110410451889,walking
1783087313541125600,4.427125732421875,-1.4571622175842522,-0.1961883790651336,1.65858729172647,0.3804869055747986,-0.0553041510283947,0.1345313191413879,walking
1783087313551170600,4.437170654296875,-1.5433527466975152,-0.2533518981964327,1.9914520496368409,0.2582029700279236,-0.1557723134756088,0.1653178483247757,walking
1783087313561214700,4.447214599609375,-1.3577256917983294,-0.2713921982072294,2.2751070786982774,0.1483137458562851,-0.2645211517810821,0.1726039946079254,walking
1783087313571259600,4.457259765625,-0.989157313952595,-0.289587761844974,2.379611409267783,0.0629908517003059,-0.3633975088596344,0.175447791814804,walking
1783087313581303600,4.467303466796875,-0.8546488902635871,-0.3816713127858936,2.1024638624042273,-0.00777493044734,-0.3824215531349182,0.1642449349164962,walking
1783087313591348700,4.4773486328125,-0.8393884119633584,-0.5912970829099417,1.5252017345875502,-0.0534822307527065,-0.3609459698200226,0.145511120557785,walking
1783087313601392600,4.487392578125,-0.5372337034847587,-0.7956579182431102,1.1006658241957423,-0.0228865034878253,-0.3366044163703918,0.1118498295545578,walking
1783087313611436500,4.4974365234375,-0.301360124034807,-1.2039669895205647,1.0554004490584137,0.0410494394600391,-0.2970604300498962,0.0206455793231725,walking
1783087313621481700,4.507481689453125,-0.1999244603209197,-1.812570961866528,1.1890490410476922,0.0826962143182754,-0.2420515120029449,-0.1060170233249664,walking
1783087313631525600,4.517525634765625,-0.3155661979112774,-2.1050153004527092,1.4202648578196764,0.0711373016238212,-0.1791801452636718,-0.2303695976734161,walking
1783087313641570600,4.527570556640625,-0.3797505738563835,-2.174839508915692,1.7243261305719613,0.0368584208190441,-0.104620948433876,-0.342758446931839,walking
1783087313651614700,4.53761474609375,-0.390878117070347,-2.2039102667078376,1.8012322601199149,0.0025398433208465,0.0038475662004202,-0.4258419871330261,walking
1783087313661659000,4.547658935546875,-0.4503899711597711,-2.095553790754825,1.5675012456566095,-0.0362815894186496,0.127343401312828,-0.4769869148731231,walking
1783087313671703600,4.55770361328125,-0.4956113610249012,-2.0082059082999826,1.228755613014102,-0.085679218173027,0.241594910621643,-0.4943004846572876,walking
1783087313681747700,4.567747802734375,-0.5888656179793179,-2.0190788922309872,0.9187304634213448,-0.1329460591077804,0.3161695599555969,-0.4722010493278503,walking
1783087313691792600,4.577792724609375,-0.6682829996958375,-2.0176311776407063,0.7758364887028932,-0.1343330293893814,0.3406803607940674,-0.4214095771312713,walking
1783087313701836500,4.58783642578125,-0.6599936025172471,-1.8518775747299192,0.688202044391632,-0.080366738140583,0.3229333162307739,-0.335957795381546,walking
1783087313711880700,4.597880615234375,-0.6087419195119291,-1.5988313266828655,0.6347521937549114,0.0061448384076356,0.2938720285892486,-0.2444640696048736,walking
1783087313721925600,4.607925537109375,-0.6625535891983658,-1.5907468044266104,0.6449304734200239,0.0798177272081375,0.2902463972568512,-0.1884356886148452,walking
1783087313731969500,4.617969482421875,-0.8585937554318457,-1.7196585771523416,0.7772533697634935,0.1103772521018982,0.285389095544815,-0.1497178673744201,walking
1783087313742014500,4.628014404296875,-1.074209413620457,-1.721580777386576,1.0250158321887255,0.1068160757422447,0.2242285162210464,-0.0962367877364158,walking
1783087313752058600,4.63805859375,-1.1748784768760203,-1.6914067345276471,1.2136568280816078,0.1236720159649849,0.1016725152730941,-0.0194714404642581,walking
1783087313762102300,4.648102294921875,-1.2319162690021097,-1.6079038370631635,1.1694032603353262,0.1654498279094696,-0.0417016893625259,0.0691931843757629,walking
1783087313772147500,4.6581474609375,-1.3836990680970251,-1.4340692190274595,0.8960212034851313,0.2151938676834106,-0.1875743269920349,0.1752299815416336,walking
1783087313782191600,4.668191650390625,-1.731323295982927,-1.2837740281417964,0.5200497097760438,0.2578438520431518,-0.294969767332077,0.2689562141895294,walking
1783087313792236300,4.678236328125,-1.8987547689780593,-1.3759030073933305,0.1265846449524164,0.2947603464126587,-0.3418196141719818,0.3086496591567993,walking
1783087313802280400,4.688280517578125,-1.8388930054724215,-1.6540598774299025,-0.2680389422565698,0.336803138256073,-0.3968581259250641,0.2928970456123352,walking
1783087313812324600,4.69832470703125,-1.5422214045800269,-1.753975565034896,-0.3974281232357025,0.3607060313224792,-0.5069682002067566,0.2873950600624084,walking
1783087313822369300,4.708369384765625,-1.298073625520617,-1.4497678695492446,-0.2746843716204166,0.3650730848312378,-0.7256779074668884,0.3289113640785217,walking
1783087313832413400,4.718413330078125,-1.1788228305876254,-1.121529456265271,-0.0279500831991434,0.3749394416809082,-1.035505771636963,0.4212855398654938,walking
1783087313842458400,4.728458251953125,-1.3060207851327954,-1.100924913523346,0.0657084437072277,0.3967693746089935,-1.3832248449325562,0.5132559537887573,walking
1783087313852502300,4.738502197265625,-1.6521828315116465,-1.4807649192288517,-0.0335445422053337,0.4229955673217773,-1.658231258392334,0.5131310820579529,walking
1783087313862546400,4.74854638671875,-2.8027093958109615,-2.3204043102785943,-0.6956015069931745,0.4726121127605438,-1.5163265466690063,0.4176817834377289,walking
1783087313872591600,4.758591552734375,-5.511280372244119,-2.2883073365330695,-3.0486218464553354,0.5403510332107544,-1.0396058559417725,0.549578070640564,walking
1783087313882635300,4.76863525390625,-4.270326371914148,0.1351311586972326,-4.787741057011485,0.5521877408027649,-0.5799933075904846,0.8482089638710022,walking
1783087313892680400,4.778680419921875,-1.1634985663361848,1.880177786540985,-5.276016156864166,0.5340664982795715,-0.0256894789636135,1.133676052093506,walking
1783087313902724600,4.788724609375,0.3250935393869876,3.107446668128669,-5.9595244904816145,0.506530225276947,0.4727914333343506,1.3062418699264526,walking
1783087313912769500,4.79876953125,1.2433717289961874,3.333070948503911,-5.562067725673318,0.429372102022171,0.8598713278770447,1.3794913291931152,walking
1783087313922813400,4.8088134765625,0.9192894124783576,2.6894664629906413,-4.183832329809666,0.2738464474678039,0.903110921382904,1.4279060363769531,walking
1783087313932857600,4.818857666015625,0.958297626917064,2.0389368543893096,-1.3417284967213867,0.1491743624210357,0.7092946767807007,1.327959060668945,walking
1783087313942902300,4.82890234375,0.9693673024639486,0.7886747082922607,0.6564174975961447,0.0715600028634071,0.5027979612350464,1.1093449592590332,walking
1783087313952946400,4.838946533203125,-0.3025736645430326,-0.1904044253688305,0.9774754978567362,-0.0083911838009953,0.3411895334720611,0.8305791616439819,walking
1783087313962991400,4.848991455078125,-1.1210321742676197,-0.6397982250981032,0.9039613488346336,-0.050764475017786,0.1687106937170028,0.5330820083618164,walking
1783087313973035300,4.85903515625,-0.6626815264269709,-0.9335041080527008,1.3834627751231192,-0.0598816014826297,-0.0584851205348968,0.2472107708454132,walking
1783087313983079400,4.869079345703125,-0.1359428404062986,-0.7055304880723356,1.806007219436765,-0.0979296490550041,-0.1836550235748291,-0.0065977959893643,walking
1783087313993124600,4.87912451171875,-0.4623274425171315,-0.3411719099413603,1.056943586847186,-0.1674005985260009,-0.2247644811868667,-0.1992931365966797,walking
1783087314003168300,4.889168212890625,0.3715932786248624,-0.203800972960703,0.6146247670054436,-0.1638474017381668,-0.2941126525402069,-0.3189257979393005,walking
1783087314013213400,4.89921337890625,1.4883495291389524,0.1499353445973247,0.6190466751009226,-0.1375017613172531,-0.3102705478668213,-0.415162593126297,walking
1783087314023257600,4.909257568359375,1.4960112959384917,0.5248989399055018,-0.1813631138443946,-0.1842583566904068,-0.2059656977653503,-0.39308762550354,walking
1783087314033301200,4.91930126953125,1.4649746449008585,0.9932119961708784,-0.8307359536260366,-0.2623657584190368,-0.1536558419466018,-0.236623540520668,walking
1783087314043346400,4.929346435546875,2.226578317850828,1.314687637321651,-0.3541203119069337,-0.2708021104335785,-0.1857101917266845,-0.0321921072900295,walking
1783087314053390600,4.939390625,2.915909074011445,1.3044105734571814,0.0249988321781158,-0.2248604297637939,-0.2747156918048858,0.1512288451194763,walking
1783087314063435500,4.949435546875,3.300131678715348,1.0509381358873098,0.0636217005610466,-0.1640370339155197,-0.3449083566665649,0.3034258484840393,walking
1783087314073479400,4.9594794921875,3.259830647987127,0.8040545751884579,0.1582949574679136,-0.128928393125534,-0.3406022787094116,0.4547183513641357,walking
1783087314083523600,4.969523681640625,2.7992557482257485,0.7108571629878133,0.2365413957089185,-0.1254481822252273,-0.2353576123714447,0.5925624966621399,walking
1783087314093568500,4.979568603515625,2.4063370652385054,0.7872972093939781,0.3934656493455171,-0.1450617462396621,-0.0977149680256843,0.7208008766174316,walking
1783087314103612400,4.9896123046875,2.2169385289765895,0.9403044357173144,0.802495363047719,-0.1872177124023437,0.0213973131030797,0.814231812953949,walking
1783087314113657600,4.99965771484375,1.966793993720412,0.8726248380675912,1.2609276978224515,-0.2467142939567566,0.1124640479683876,0.851081907749176,walking
1783087314123701200,5.009701171875,1.616446332219988,0.7034460099484771,1.4494745856910942,-0.3144222199916839,0.1315221786499023,0.8531578183174133,walking
1783087314133745400,5.019745361328125,1.2954608126737177,0.4726884583380073,1.4853420178860426,-0.3252039551734924,0.0920047312974929,0.839760422706604,walking
1783087314143790600,5.02979052734375,0.9335518927171824,0.2633788780236616,1.229725334829092,-0.2684375941753387,0.0369675792753696,0.8375166654586792,walking
1783087314153834200,5.039834228515625,0.8420927755512296,0.2735059024255722,0.7716764464139938,-0.1960205137729644,-0.0151386894285678,0.8773905634880066,walking
1783087314163879400,5.04987939453125,0.8514750825330615,0.474219869156368,0.4025397671610117,-0.1429141461849212,0.0085059199482202,0.9431453347206116,walking
1783087314173923600,5.059923583984375,0.7562881770156323,0.6573756751038133,0.0206242703557014,-0.1381213814020156,0.0979509428143501,1.0022878646850586,walking
1783087314183968500,5.069968505859375,0.5844349420554935,0.5497150359278544,-0.2239583929896354,-0.1707983762025833,0.2273123860359192,1.0526796579360962,walking
1783087314194012400,5.080012451171875,0.3488770044259727,0.3759004012342542,-0.3197603616654872,-0.2260504812002182,0.3479138314723968,1.0856119394302368,walking
1783087314204056600,5.090056640625,0.3632521512590348,0.17193477576375,-0.2293792489945888,-0.2848432064056396,0.4358362257480621,1.107188105583191,walking
1783087314214101500,5.1001015625,0.4709247366011142,0.0687557937801815,-0.0102864162147045,-0.3293552100658417,0.4643782377243042,1.127165913581848,walking
1783087314224145400,5.1101455078125,0.6097356797896325,0.0440575337175279,0.3286374956041574,-0.3373697400093078,0.4727477729320526,1.1193151473999023,walking
1783087314234189600,5.120189453125,0.5532387165419757,-0.2172074939573183,0.5962158346116543,-0.3264932036399841,0.435770034790039,1.093332052230835,walking
1783087314244234500,5.130234375,0.6651704206332564,-0.4665701946534216,0.9590507833719252,-0.3119164109230041,0.3507731258869171,1.0655419826507568,walking
1783087314254278400,5.1402783203125,0.7595468865506351,-0.6064656816756352,1.11840664806962,-0.2993664443492889,0.2369413375854492,1.0388562679290771,walking
1783087314264323600,5.150323486328125,0.8452239131838083,-0.7279414226491003,1.0801157881200314,-0.2848687171936035,0.1357745081186294,1.0286762714385986,walking
1783087314274367200,5.1603671875,0.8971792874790727,-0.790971513992548,0.8527017017185687,-0.2713405191898346,0.0647785812616348,1.0401862859725952,walking
1783087314284412400,5.170412353515625,1.053815225693583,-0.7239909314576536,0.6145721600353717,-0.2618285119533539,0.0315636396408081,1.0586704015731812,walking
1783087314294456600,5.18045654296875,1.1521144180126488,-0.6915251974649727,0.3928033860445022,-0.2531147599220276,0.0345808528363704,1.074923396110535,walking
1783087314304500200,5.190500244140625,1.1633619343444703,-0.6973536113575101,0.1872171005696058,-0.2465399503707885,0.0426254607737064,1.0996702909469604,walking
1783087314314545400,5.20054541015625,1.341156688182801,-0.6893611512988805,0.0930886180639267,-0.2360986918210983,0.0581359341740608,1.1105667352676392,walking
1783087314324589600,5.210589599609375,1.3371015675731002,-0.91379439525865,0.076224577024579,-0.2305904775857925,0.0802191346883773,1.091153860092163,walking
1783087314334634500,5.220634521484375,1.2237272634580731,-1.2919007821045816,0.1412415313363075,-0.2281224876642227,0.1204761564731597,1.0507975816726685,walking
1783087314344678400,5.230678466796875,1.0663558505758644,-1.6648111346773802,0.1433802969306707,-0.2266196757555008,0.1707696765661239,1.001585841178894,walking
1783087314354722600,5.24072265625,0.9296889336787164,-1.928199766910076,0.1539817704439163,-0.2233262807130813,0.2188485711812973,0.9514184594154358,walking
1783087314364767500,5.250767578125,0.7723544918060302,-1.992374425178766,0.1324573363780975,-0.2200585901737213,0.2305156141519546,0.9149922728538512,walking
1783087314374811400,5.260811279296875,0.711762660460174,-1.92100284114331,0.2122720468491315,-0.2145343869924545,0.1953969597816467,0.8911109566688538,walking
1783087314384856600,5.270856689453125,0.6160002931423485,-1.7879416936531662,0.3259142081201076,-0.2038188874721527,0.1197879463434219,0.8898217082023621,walking
1783087314394900500,5.280900390625,0.5140647901475429,-1.6211524640843271,0.3738461721181869,-0.1761715561151504,0.0178770031780004,0.9185103178024292,walking
1783087314404944400,5.2909443359375,0.4364051388185471,-1.3692166614972054,0.435163687390089,-0.1240718737244606,-0.0914833098649978,0.979187548160553,walking
1783087314414989600,5.300989501953125,0.4803193185426294,-1.177094691620767,0.5058388135939836,-0.0545394420623779,-0.1757301986217498,1.0310760736465454,walking
1783087314425033200,5.311033203125,0.5946119796115905,-1.1615903946273027,0.482765981042385,0.0122454455122351,-0.2062915712594986,1.0740360021591189,walking
1783087314435078400,5.321078369140625,0.6902448022656142,-1.1357057925906031,0.3424211062848568,0.0361870378255844,-0.1663144081830978,1.1107865571975708,walking
1783087314445122600,5.33112255859375,0.6595490736201405,-1.1116597310926764,0.122055184829235,0.0287885107100009,-0.0948314368724823,1.1556512117385864,walking
1783087314455166500,5.34116650390625,0.7184723872318863,-1.033647393868491,-0.0123579617917537,0.0271340981125831,-0.0549820065498352,1.2256118059158323,walking
1783087314465211400,5.35121142578125,0.917721724770218,-0.9519828177470712,-0.1335223352611065,0.0407670848071575,-0.0727610066533088,1.3253830671310425,walking
1783087314475255600,5.361255615234375,1.123434486168995,-0.8977521189309656,-0.2963870848625898,0.0601182058453559,-0.1783588230609893,1.4259858131408691,walking
1783087314485300500,5.371300537109375,1.451737562187016,-0.9402261828493328,-0.4419482329636812,0.081511378288269,-0.3520568311214447,1.5091421604156494,walking
1783087314495344400,5.381344482421875,1.6812698097862302,-1.0076301053628325,-0.7424673030644655,0.1164095476269722,-0.5053868293762207,1.591370940208435,walking
1783087314505388500,5.391388427734375,1.3327886728100478,-0.8276088345814496,-1.1625269448250533,0.166154995560646,-0.5916407704353333,1.6847748756408691,walking
1783087314515433500,5.40143359375,0.7141565698593855,-0.5306722260773181,-1.3538216700971126,0.2055647671222686,-0.6741840839385986,1.7599406242370603,walking
1783087314525477400,5.411477294921875,0.529836944296956,-0.330618367223069,-0.8266279337853193,0.2691259086132049,-0.8108449578285217,1.7992573976516724,walking
1783087314535522600,5.4215224609375,0.4568818904623389,-0.1081186486091464,0.0283007963329553,0.3573546409606933,-0.9931491613388062,1.8203128576278689,walking
1783087314545566500,5.43156640625,0.4434504542201757,0.189419652115181,0.5716828663796186,0.4463114142417907,-1.1623032093048096,1.8253976106643677,walking
1783087314555610400,5.4416103515625,0.414181543507427,0.5543823336191475,0.5826566803365946,0.5267472267150879,-1.2303305864334106,1.8184337615966797,walking
1783087314565655600,5.451655517578125,0.2684104059174657,0.7108170501731336,0.1381540867149829,0.5709442496299744,-1.1901030540466309,1.7458407878875732,walking
1783087314575699500,5.461699462890625,0.3542050675809383,0.1608113242030143,-0.6090010819047689,0.542603611946106,-1.0388184785842896,1.6305545568466189,walking
1783087314585744400,5.471744384765625,0.619376783838123,-0.2848242920365184,-1.967588943490386,0.4878951013088226,-0.7947461605072021,1.5647164583206177,walking
1783087314595788500,5.48178857421875,1.4121419032491742,-0.2404662410024553,-3.5700849301606414,0.4312875270843506,-0.5242518782615662,1.5628141164779663,walking
1783087314605832400,5.49183251953125,2.36968169753626,-0.0789173963051289,-4.40939640443027,0.3604626059532165,-0.2681074738502502,1.5877685546875,walking
1783087314615877400,5.50187744140625,2.848947123111784,-0.0076994684614241,-4.195443857148289,0.2739231884479522,-0.071915179491043,1.6098318099975586,walking
1783087314625921500,5.511921630859375,2.976200753366947,-0.0984330478318035,-3.0837755774229763,0.2083369791507721,0.0484682247042655,1.6450252532958984,walking
1783087314635966500,5.521966552734375,2.831056953895092,0.1039791376516222,-1.552111953344941,0.1897935420274734,0.0812367722392082,1.7217028141021729,walking
1783087314646010400,5.53201025390625,2.531751351237297,0.6594974895633757,-0.0536667082577943,0.238805815577507,0.0015025325119495,1.827141523361206,walking
1783087314656054500,5.542054443359375,2.3742823231995103,1.0243867405049505,1.2589672114044428,0.3200117945671081,-0.1722939014434814,1.9209672212600708,walking
1783087314666099500,5.552099365234375,2.0943413462251423,1.0112459577724338,2.309042081525922,0.3856440782546997,-0.4389378428459167,1.9847315549850464,walking
1783087314676143400,5.562143310546875,1.6308642952814698,0.7646466208424418,2.929713142958283,0.4546440839767456,-0.6982589364051819,2.0186350345611572,walking
1783087314686188500,5.5721884765625,1.151759759356081,0.3987267116788774,2.964476997825503,0.5353301763534546,-0.9747389554977416,2.030198574066162,walking
1783087314696232400,5.582232421875,0.8908929006859659,-0.0314778919991105,2.8231629857748746,0.6338624954223633,-1.2265948057174685,2.0027427673339844,walking
1783087314706277400,5.59227734375,0.5684482683725655,-0.4632759754136204,2.425727848276496,0.734813928604126,-1.385114312171936,1.9421919584274292,walking
1783087314716321500,5.602321533203125,0.1108161440648138,-0.6764471630595624,1.7734417513966558,0.8022870421409607,-1.3654215335845947,1.874593734741211,walking
1783087314726365400,5.612365478515625,-0.3192879218481481,-0.6462468897808343,0.8397802608251571,0.8115894794464111,-1.1540120840072632,1.8273102045059204,walking
1783087314736410400,5.622410400390625,-0.5214411641344427,-0.4339156600903719,-0.1015881508618593,0.766206681728363,-0.7932851910591125,1.8016105890274048,walking
1783087314746454300,5.632454345703125,-0.5202928708821535,-0.1538607744127512,-1.1732032371401786,0.6976118683815002,-0.3091534078121185,1.8087068796157837,walking
1783087314756499200,5.642499267578125,-0.3493506132870912,0.1131111231341958,-2.36816588614583,0.6252769827842712,0.234114795923233,1.8558517694473269,walking
1783087314766543400,5.65254345703125,-0.0747965900480747,0.2996764087315648,-3.4504748003959653,0.5421724915504456,0.7381683588027954,1.915894627571106,walking
1783087314776587300,5.662587158203125,0.1796503185771405,0.1808200199436396,-3.943881417918205,0.4838390350341797,1.153742790222168,1.9795037508010864,walking
1783087314786632200,5.672632080078125,0.4214832448229193,0.0470452442914247,-3.767891813805699,0.4695783257484436,1.3803647756576538,2.0435268878936768,walking
1783087314796676400,5.68267626953125,0.6772470812655985,-0.0588361467849463,-2.873871428748965,0.4861176013946533,1.3934462070465088,2.110069513320923,walking
1783087314806721300,5.69272119140625,0.8801954194523394,-0.1254301411550492,-1.60772862662673,0.4854520857334137,1.2716302871704102,2.1822497844696045,walking
1783087314816765200,5.70276513671875,0.9009232963129876,-0.1353917093295603,-0.4742606030255555,0.4453529715538025,1.0602151155471802,2.264202117919922,walking
1783087314826809000,5.71280908203125,0.7809766280703246,-0.1006030122820288,0.3644681029200554,0.40313521027565,0.798491895198822,2.347999334335327,walking
1783087314836854300,5.722854248046875,0.629554186720401,-0.0283771495047956,1.0181260726749897,0.3847687244415283,0.516517162322998,2.437330722808838,walking
1783087314846898400,5.7328984375,0.4857732000343501,0.057570729959011,1.4066723857969046,0.3726034164428711,0.2532325387001037,2.504678249359131,walking
1783087314856943400,5.742943359375,0.2822818410120904,-0.0264784762766212,1.5225374838143586,0.3476264476776123,0.0298588741570711,2.5419209003448486,walking
1783087314866987300,5.7529873046875,-0.0001971300072968,-0.0684414488676935,1.4057143544197082,0.3072531819343567,-0.1234763488173484,2.540830612182617,walking
1783087314877031400,5.763031494140625,-0.1566859148360788,-0.1241488691728562,1.1451520316541195,0.2685454487800598,-0.2011522799730301,2.519620418548584,walking
1783087314887076400,5.773076416015625,-0.2787516210593283,-0.2573074856881052,0.7955003895938396,0.2401540130376815,-0.1999959349632263,2.475427627563477,walking
1783087314897120300,5.783120361328125,-0.3504422079160809,-0.4534465091861784,0.2886877625316381,0.2257116883993148,-0.1288658380508422,2.409061908721924,walking
1783087314907165200,5.793165283203125,-0.2505792734116315,-0.6060125676132738,-0.2698544672459363,0.2342069149017334,-0.018629876896739,2.330005168914795,walking
1783087314917209300,5.803209228515625,-0.0076106211341917,-0.7244580375127494,-0.6828390560537576,0.2481773793697357,0.1081253588199615,2.2422494888305664,walking
1783087314927253200,5.813253173828125,0.1036912606209516,-1.026086676290631,-0.8530512458086014,0.2591647803783417,0.2379978746175766,2.140925884246826,walking
1783087314937298200,5.823298095703125,0.2544680975437164,-1.2923925111442804,-0.7399497672855854,0.2854070663452148,0.3342721164226532,2.0366828441619873,walking
1783087314947342300,5.83334228515625,0.6031966334097087,-1.6290636756002903,-0.462534509396553,0.3333202600479126,0.3659679889678955,1.928010106086731,walking
1783087314957387300,5.84338720703125,0.9376387236393988,-1.8780226543337104,-0.0900999576419591,0.3923587203025818,0.3156720697879791,1.840946078300476,walking
1783087314967431400,5.853431396484375,1.2530240850910543,-1.8255653218656775,0.3962742770254612,0.4340696930885315,0.2009223401546478,1.7993559837341309,walking
1783087314977475000,5.86347509765625,1.5376123033493756,-1.593084599724412,0.7002320894032716,0.4437256753444671,0.0640106275677681,1.8002252578735352,walking
1783087314987520300,5.873520263671875,1.6954922502756118,-1.2616571811407804,0.7158914308279752,0.4315086901187897,-0.0623196177184581,1.8562527894973757,walking
1783087314997564400,5.883564453125,1.7698714916944502,-0.8141852893847972,0.5221498969256878,0.4203256666660309,-0.1653145402669906,1.946299195289612,walking
1783087315007609300,5.893609375,1.7447420188739895,-0.5341862255476415,0.3323351810783148,0.4341985881328583,-0.2429129332304,2.04000186920166,walking
1783087315017653200,5.9036533203125,1.5582007717393338,-0.4060276092767715,0.3777688985198736,0.4567998647689819,-0.2950516045093536,2.132374048233032,walking
1783087315027697400,5.913697509765625,1.3298328917443751,-0.3504945226252078,0.5036860194742679,0.4719876050949096,-0.3052877187728882,2.207768440246582,walking
1783087315037742300,5.923742431640625,1.295629593369365,-0.3264563521727919,0.5313882653921842,0.4843573868274688,-0.2613869607448578,2.286073923110962,walking
1783087315047786200,5.9337861328125,1.614862862420827,-0.080442340850085,0.2161673007220029,0.5048016905784607,-0.1418270170688629,2.391216516494751,walking
1783087315057831200,5.9438310546875,1.9399338977150615,0.4808551059197634,-0.3445078494310379,0.508344292640686,-0.1092565730214119,2.5093913078308105,walking
1783087315067875300,5.953875244140625,2.363974864196777,0.9415025594606996,0.1262614043474197,0.4837696850299835,-0.1329472512006759,2.61320424079895,walking
1783087315077919200,5.963919189453125,2.6161139342710373,1.0977557819679378,0.8319552662879228,0.4107907116413116,-0.197802722454071,2.7093687057495117,walking
1783087315087964400,5.97396435546875,2.531859195525944,1.2587296032562851,1.3136369592249393,0.2930382490158081,-0.2632128894329071,2.7846031188964844,walking
1783087315098008300,5.98400830078125,2.356687045276165,1.4073631445400416,1.3635036906778812,0.1661015152931213,-0.3067222535610199,2.8272926807403564,walking
1783087315108053200,5.99405322265625,2.2570555814400315,1.413622643326223,1.1195727692395447,0.0655296370387077,-0.3469453155994415,2.825166940689087,walking
1783087315118097400,6.004097412109375,1.79284422487244,1.127823661038652,0.9172691586971282,0.0218795947730541,-0.4156131446361542,2.7880895137786865,walking
1783087315128141000,6.01414111328125,1.1459180475905535,0.942636678057164,0.9128723850429058,0.040824256837368,-0.5420663952827454,2.7417633533477783,walking
1783087315138186200,6.024186279296875,0.6041586103096604,0.8050417595949023,1.0466261909723282,0.0789680778980255,-0.6904246211051941,2.6924939155578613,walking
1783087315148230400,6.03423046875,-0.0276722891710698,0.7907263070598244,1.3058259932130574,0.0737365633249282,-0.7662842273712158,2.636706590652466,walking
1783087315158275300,6.044275390625,-1.3076371342882511,0.9715356594789772,1.1447001962333916,0.0135402344167232,-0.6259766817092896,2.68222975730896,walking
1783087315168319200,6.0543193359375,-3.101806908676028,2.0137132735446093,0.2399947510331869,-0.0382710322737693,-0.2239549160003662,2.774698257446289,walking
1783087315178364200,6.0643642578125,-3.1384014861017464,2.3082344184048473,-1.0943541568309068,-0.0725418776273727,0.2754123508930206,2.7834250926971436,walking
1783087315188408300,6.074408203125,-1.9483267552681267,1.8337179409220816,-2.217816334724426,-0.1257166862487793,0.7033554315567017,2.809326410293579,walking
1783087315198452200,6.0844521484375,0.1621706298574805,1.844054333758354,-2.9314082564383743,-0.1218549162149429,0.8739731311798096,2.8497066497802734,walking
1783087315208497400,6.094497314453125,2.854052045035362,1.487115311168879,-2.6637235344469548,0.0430011488497257,0.8396036624908447,2.844324827194214,walking
1783087315218541300,6.104541259765625,3.608065993508697,0.9448520890843124,-2.1166595610171557,0.2083796858787536,0.8340775370597839,2.8200762271881104,walking
1783087315228586200,6.114586181640625,2.61942934242934,0.9452215069185942,-2.259070720654726,0.1646678894758224,0.9057887196540833,2.868472099304199,walking
1783087315238630400,6.12463037109375,1.8596363721631464,1.4641921162210405,-1.253176937565207,-0.011838462203741,0.95620995759964,2.852977514266968,walking
1783087315248674300,6.13467431640625,1.6585507591083646,0.3683803079277277,0.2725648952484131,-0.1384680420160293,0.9832050800323486,2.757420301437378,walking
1783087315258719200,6.14471923828125,1.2715632197357714,-0.4218192718442529,0.8786030356943607,-0.1796452850103378,0.9345433115959167,2.6144652366638184,walking
1783087315268763400,6.154763427734375,1.0656574930481613,-0.4393611390799283,1.106647821214795,-0.2319212704896927,0.7670587301254272,2.3729541301727295,walking
1783087315278808300,6.164808349609375,1.0757507978435603,-1.0044071977935731,1.0546025766789913,-0.2892746329307556,0.5435791611671448,2.135113477706909,walking
1783087315288852200,6.174852294921875,0.4661532113503664,-1.750908432549238,0.8158125252604485,-0.3075601756572723,0.2905810177326202,1.870558500289917,walking
1783087315298896400,6.184896484375,-0.0487453079412691,-2.4531226356804368,0.8581529528617858,-0.2650704085826874,0.0112582966685295,1.565065622329712,walking
1783087315308941300,6.19494140625,0.046112036828231,-2.8961130711734295,1.0955629480987787,-0.1733144074678421,-0.3278859555721283,1.265138864517212,walking
1783087315318985200,6.204985107421875,0.5663290842615067,-2.991452683034539,1.2644582100361583,-0.0509207621216774,-0.5952156782150269,0.9565737843513488,walking
1783087315329030400,6.215030517578125,0.8325899109296501,-3.195950588750839,0.8131243090897798,0.0580416768789291,-0.6538547277450562,0.6403934359550476,walking
1783087315339074300,6.22507421875,0.7411072667576373,-3.296325272169709,-0.0765390498012304,0.0136090070009231,-0.3916307985782623,0.3834194242954254,walking
1783087315349118200,6.2351181640625,0.7518283480625599,-2.7568223816439508,-1.1955951016902924,0.0019792476668953,-0.1579671800136566,0.3091212511062622,walking
1783087315359163400,6.245163330078125,0.9889869258217512,-1.894531744455546,-0.1398626441985368,0.1101116240024566,-0.1486314088106155,0.3971685469150543,walking
1783087315369207300,6.255207275390625,1.122928071016818,-1.5656693540543316,0.758190357375145,0.1873107999563217,-0.2437786906957626,0.4742582738399505,walking
1783087315379252200,6.265252197265625,1.5289751156464215,-1.875507748903334,0.4121580748558044,0.2360175848007202,-0.4149565696716308,0.5342040657997131,walking
1783087315389296400,6.27529638671875,1.852755964999646,-2.373717528923601,-0.0005693243205547,0.2746781706809997,-0.5403594970703125,0.5742095112800598,walking
1783087315399340300,6.28534033203125,1.7195993943110108,-2.65795021174252,-0.858715847441554,0.3016341626644134,-0.5697728991508484,0.5951109528541565,walking
1783087315409385200,6.29538525390625,1.606044326801598,-2.58312614916563,-1.595173096436262,0.323521077632904,-0.513692319393158,0.6320668458938599,walking
1783087315419429400,6.305429443359375,1.5789679576970637,-2.16473122574687,-1.869580989202857,0.3622922301292419,-0.440998762845993,0.6969906091690063,walking
1783087315429474300,6.315474365234375,1.5569249065846205,-1.5250044584497808,-1.5345494086474178,0.4256648123264313,-0.3933076858520508,0.8216211795806885,walking
1783087315439518200,6.325518310546875,1.5083967302590608,-0.5914614066261797,-0.7312889064460992,0.4706098437309265,-0.4199027717113495,0.9822725057601928,walking
1783087315449562400,6.335562255859375,1.464050223532319,0.037181218207255,0.3067167556971311,0.4538345634937286,-0.4888024628162384,1.1244217157363892,walking
1783087315459607300,6.345607177734375,1.21894002918154,0.2479117347028106,1.0755524257272482,0.3856319487094879,-0.5692458748817444,1.2519123554229736,walking
1783087315469651200,6.355651123046875,1.017052232898399,0.5240120375357568,1.5703893683135508,0.3192113637924194,-0.640623927116394,1.3623535633087158,walking
1783087315479696400,6.3656962890625,0.8957675940502434,0.6939564431998878,1.6064420939475297,0.2784198820590973,-0.6726016998291016,1.4394370317459106,walking
1783087315489740300,6.375740234375,0.8734084627259522,0.742810563544184,1.2689175275325777,0.2773271799087524,-0.6669624447822571,1.495830774307251,walking
1783087315499784200,6.3857841796875,0.9191949391279368,0.7608800348505377,0.8502958096206188,0.2805891633033752,-0.6282472610473633,1.528156280517578,walking
1783087315509829400,6.395829345703125,0.9734280490968376,0.6494583991732448,0.5749281319111585,0.2567101716995239,-0.5724159479141235,1.5399162769317627,walking
1783087315519873300,6.405873291015625,0.9186465845301748,0.510546406763047,0.4782926350206136,0.2184740155935287,-0.5229302048683167,1.5312719345092771,walking
1783087315529918200,6.415918212890625,0.9437121983341872,0.447978526103869,0.3955395330101251,0.1791148781776428,-0.4591917395591736,1.506028652191162,walking
1783087315539962400,6.42596240234375,0.889681990526244,0.3240902806285768,0.0706038145333528,0.1210485398769378,-0.3688573241233825,1.4634780883789062,walking
1783087315550006300,6.43600634765625,0.799543308309093,0.1983385793689638,-0.2340460717618465,0.0641863271594047,-0.2653522193431854,1.4199897050857544,walking
1783087315560051200,6.44605126953125,0.8565845345012844,0.0773672442536801,-0.3823270002156496,-0.0031327088363468,-0.145208403468132,1.368125557899475,walking
1783087315570095400,6.456095458984375,0.7673175936173647,-0.1694993653103709,-0.5625035346239805,-0.0781046897172927,-0.0304067153483629,1.3117365837097168,walking
1783087315580140300,6.466140380859375,0.815708772625029,-0.4558648223742842,-0.6623954029619693,-0.1285341829061508,0.0682529434561729,1.258000135421753,walking
1783087315590184200,6.47618408203125,1.0166229746356603,-0.863538372227177,-0.7863269030570983,-0.1485265344381332,0.1396799981594085,1.186556339263916,walking
1783087315600228400,6.486228271484375,1.1157341409247368,-1.285837682673335,-0.8838029424250126,-0.1339655071496963,0.1657566428184509,1.1064072847366333,walking
1783087315610273300,6.496273193359375,1.1429163815565406,-1.7046832724690435,-0.8408008360445499,-0.1015590876340866,0.1519327014684677,1.0192782878875732,walking
1783087315620317200,6.506317138671875,1.01503409800902,-2.0921716009706257,-0.6337316185355186,-0.0723695755004882,0.0917562097311019,0.9518032073974608,walking
1783087315630362400,6.5163623046875,0.8792227750279009,-2.1200031723566353,-0.4110767093598842,-0.042169589549303,0.0077923350036144,0.9182646870613098,walking
1783087315640406300,6.52640625,0.8181378264028578,-2.019002758254856,-0.2170581120818853,-0.006814525462687,-0.0867010354995727,0.9000709056854248,walking
1783087315650451200,6.536451171875,0.7205696517720818,-1.959558197247982,-0.0658282706946134,0.0389748029410839,-0.1814491301774978,0.9005438685417175,walking
1783087315660495400,6.546495361328125,0.8386360592260956,-1.9278382401213048,0.1434779120862483,0.0774169340729713,-0.2807426154613495,0.9098755717277528,walking
1783087315670539300,6.556539306640625,0.9589267186008392,-1.9474378436043855,0.2605167300581932,0.0967054143548011,-0.3513416945934295,0.9082731008529664,walking
1783087315680584200,6.566584228515625,0.8761440251696855,-2.0318879587911067,0.2735223421037197,0.1007417365908622,-0.38835409283638,0.896050214767456,walking
1783087315690628400,6.57662841796875,0.8795756801187992,-2.0469626321956516,0.214691967472434,0.1046342104673385,-0.4344933629035949,0.8903446793556213,walking
1783087315700673300,6.58667333984375,1.0283898386664687,-2.0385748892091216,0.2814496279716491,0.131727784872055,-0.4952678978443146,0.8842706680297852,walking
1783087315710717200,6.59671728515625,1.0929646021686494,-1.888568306006491,0.3832797708958387,0.1524533033370971,-0.5247945785522461,0.8978365659713745,walking
1783087315720761300,6.60676123046875,0.9859263692073524,-1.5072390846565364,0.3104267161309719,0.1392746567726135,-0.4982162415981293,0.938521146774292,walking
1783087315730806300,6.61680615234375,0.8366047725941985,-1.2393594246149062,0.0435112249463796,0.1295962035655975,-0.442565768957138,0.9923833012580872,walking
1783087315740850700,6.6268505859375,0.8186347430743277,-1.1156529654473066,-0.113006201454997,0.1556569784879684,-0.3940294682979584,1.038047194480896,walking
1783087315750895600,6.6368955078125,0.9255329830430448,-1.0379333275593816,-0.0655482847094535,0.1816952377557754,-0.3525603115558624,1.0757501125335691,walking
1783087315760939500,6.646939453125,0.927207345996052,-0.9442994967028498,0.0756435622662305,0.1710809916257858,-0.3143746256828308,1.1042542457580566,walking
1783087315770983700,6.656983642578125,0.8967064092703163,-0.8842350502319634,0.2216220589965581,0.147418811917305,-0.2838020622730255,1.1146970987319946,walking
1783087315781028900,6.66702880859375,0.8898489445909857,-0.9214536778401584,0.3131014882981777,0.1431824117898941,-0.2587779462337494,1.096943736076355,walking
1783087315791072500,6.677072509765625,0.812016055586934,-0.9608755876462906,0.2591828511059284,0.1574910581111908,-0.2124519944190979,1.0610976219177246,walking
1783087315801117700,6.68711767578125,0.8037934400342405,-0.8565453715346754,0.2219248413354158,0.1597820371389389,-0.1503518223762512,1.0264909267425537,walking
1783087315811161900,6.697161865234375,0.8284158401153981,-0.6409050172962248,0.270920050650835,0.1252317875623703,-0.1103279814124107,0.9972431659698486,walking
1783087315821205500,6.70720556640625,0.637665012461692,-0.4454578485198319,0.3673386899203061,0.0799020007252693,-0.10875154286623,0.9623132348060608,walking
1783087315831250700,6.717250732421875,0.3528640282355249,-0.4068492278579622,0.3815723824560642,0.0571753904223442,-0.1708575189113617,0.9066597819328308,walking
1783087315841294800,6.727294921875,0.3103473672844469,-0.6412732660867273,0.4403302763730287,0.0735655426979065,-0.3175210058689117,0.8328644037246704,walking
1783087315851339500,6.737339599609375,0.5273157552562654,-1.055216251597926,0.4529448432743549,0.1179820150136947,-0.5055947303771973,0.7343903183937073,walking
1783087315861383700,6.7473837890625,0.7038416582025587,-1.4128218483373522,0.2790852369278669,0.1776150166988372,-0.6782599687576294,0.6086558103561401,walking
1783087315871427600,6.757427490234375,0.8519096745580435,-1.6888818922251465,0.0035994857966899,0.2379894107580185,-0.7782981395721436,0.4747297167778015,walking
1783087315881472500,6.767472412109375,0.856857506223768,-1.8181866097912192,-0.4122457531392574,0.2732373774051666,-0.7738686800003052,0.3364026546478271,walking
1783087315891516700,6.7775166015625,0.6208963946208358,-1.819482056429237,-0.94824355815351,0.2971144914627075,-0.6449477076530457,0.2207743376493454,walking
1783087315901561900,6.787561767578125,0.3665747198104858,-1.551347690974176,-1.5830290696561335,0.3327124118804931,-0.4322031140327453,0.1678166538476944,walking
1783087315911605500,6.79760546875,0.2896723896548152,-0.998702921737358,-2.1113404118210077,0.382373183965683,-0.194357544183731,0.1878398954868316,walking
1783087315921649700,6.807649658203125,0.3028404987856745,-0.397888215028122,-2.3901269580632447,0.4258667230606079,0.0143797369673848,0.2439659833908081,walking
1783087315931694800,6.81769482421875,0.4865379007965326,0.0701660076379775,-2.4653666157037017,0.4414792358875274,0.2011853009462356,0.3025022745132446,walking
1783087315941738500,6.827738525390625,0.727307727855444,0.3409996951796114,-2.3849147763729093,0.4112296998500824,0.3613053262233734,0.3520196676254272,walking
1783087315951783700,6.83778369140625,0.8400411037184298,0.5584619310829788,-2.276291904568672,0.3501085638999939,0.5100676417350769,0.3924384713172912,walking
1783087315961827800,6.847827880859375,0.6650226827256381,0.7226040802091359,-2.2126538373947144,0.2973299920558929,0.6611403226852417,0.4221526086330414,walking
1783087315971871500,6.85787158203125,0.2244388699829578,0.850441793962568,-2.000216955372691,0.2737865746021271,0.7322171330451965,0.4570259153842926,walking
1783087315981916700,6.867916748046875,-0.2240051547408103,0.971174132690206,-1.430390530514717,0.28707355260849,0.6900190114974976,0.5240877866744995,walking
1783087315991960800,6.8779609375,-0.5180380776926875,1.117686736297235,-0.8425403731882571,0.3380086421966553,0.5545719861984253,0.6256282329559326,walking
1783087316002005500,6.888005615234375,-0.6256717923291027,1.2758993492439388,-0.3836959504812955,0.4060299098491668,0.3651417791843414,0.7370907068252563,walking
1783087316012049700,6.898049560546875,-0.580786064159125,1.4576555540591478,-0.0934545287668704,0.4809462428092956,0.1491786241531372,0.8556373119354248,walking
1783087316022093800,6.90809375,-0.5019622644215822,1.7598454799816012,0.1337263334006071,0.5370046496391296,-0.0663157328963279,0.9794976115226746,walking
1783087316032138500,6.918138427734375,-0.3944759954318404,1.9901582104340192,0.3275865252465009,0.5735037922859192,-0.2665998339653015,1.0931501388549805,walking
1783087316042182700,6.9281826171875,-0.3889630772292614,2.098990925596654,0.4797299743473529,0.6117599010467529,-0.4497707486152649,1.1779072284698486,walking
1783087316052227800,6.938227783203125,-0.5422099575273692,2.0238919916011393,0.5163602076083421,0.6582445502281189,-0.5336666703224182,1.205240249633789,walking
1783087316062271500,6.948271484375,-0.8392359248153864,1.7509505181252956,0.3343365840286016,0.6801222562789917,-0.4969403743743896,1.173136830329895,walking
1783087316072315600,6.958315673828125,-1.084151181115955,1.6203152826078235,0.2030658270865678,0.6649842858314514,-0.3688822984695434,1.099395513534546,walking
1783087316082360800,6.96836083984375,-1.117601176905632,1.5597123453460633,0.0156055654108524,0.6250048279762268,-0.1555512249469757,1.0068775415420532,walking
1783087316092404500,6.978404541015625,-1.0599624962769447,1.5900862946912646,-0.3637409576892852,0.5531594157218933,0.0707410424947738,0.886767566204071,walking
1783087316102449700,6.98844970703125,-1.0113612547151745,1.6172783991299569,-0.5079729030132294,0.4518654346466064,0.2573411762714386,0.7546451091766357,walking
1783087316112493800,6.998493896484375,-0.9671487496316432,1.4390341479584574,-0.506054502171278,0.3380757570266723,0.3765900731086731,0.6533496379852295,walking
1783087316122537700,7.008537841796875,-0.7594758671410381,1.1901436313513665,-0.4244283583641052,0.2561689615249634,0.4128066599369049,0.5546957850456238,walking
1783087316132582700,7.018582763671875,-0.7230695057637989,0.7711635284557938,-0.2228203288704156,0.2327462136745453,0.4082548022270202,0.4420269727706909,walking
1783087316142626800,7.028626708984375,-0.9252019975230096,0.218918754854612,-0.1825017624855041,0.2618896961212158,0.378052145242691,0.3362243771553039,walking
1783087316152671500,7.03867138671875,-1.084488084920123,-0.1208621025871485,-0.2331885781496763,0.3179039657115936,0.3546898365020752,0.2654537856578827,walking
1783087316162715600,7.048715576171875,-1.1250652291759848,-0.1567738123152404,-0.3095031715452671,0.361737459897995,0.3658103942871094,0.2310660034418106,walking
1783087316172760800,7.0587607421875,-1.1898087003085762,-0.0761898893036879,-0.4202297376304865,0.3597044050693512,0.3541247248649597,0.2128856778144836,walking
1783087316182804500,7.068804443359375,-0.9457998182632028,-0.0010555278017651,-0.1734545326769352,0.3179892599582672,0.3100154101848602,0.2188363820314407,walking
1783087316192848600,7.0788486328125,-0.5580477242588997,0.036788218567986,0.2170984440922737,0.2659913003444671,0.2050940543413162,0.2280711680650711,walking
1783087316202893800,7.088893798828125,-0.0546459285534918,-0.113788574871188,0.5290612837493419,0.2463175356388092,0.0816602185368537,0.2255196720361709,walking
1783087316212937500,7.0989375,0.2962386893678456,-0.1986691264975816,0.6886918737351894,0.2553693652153015,-0.0547543503344059,0.2220817953348159,walking
1783087316222982700,7.108982666015625,0.38560156490691,-0.2643765290251932,0.7891331926494837,0.2819894552230835,-0.1713935434818267,0.2224809229373932,walking
1783087316233026800,7.11902685546875,0.3098995504517108,-0.3383980978464707,0.8034878812164068,0.3123534917831421,-0.2367267310619354,0.2402455359697342,walking
1783087316243070700,7.12907080078125,0.1221544074200093,-0.3010661460569128,0.8121966728508472,0.3416792750358581,-0.2513225376605987,0.2564367949962616,walking
1783087316253115600,7.13911572265625,0.0204886612772941,-0.2298764579270034,0.8437310442775487,0.3519721329212188,-0.2494639158248901,0.2709680795669555,walking
1783087316263159800,7.149159912109375,0.0259935423038899,-0.1358921513986773,1.0676239708155393,0.3440611362457275,-0.2297593653202057,0.286193311214447,walking
1783087316273204500,7.15920458984375,0.0559741814825683,-0.0706525399127509,1.2317922042310236,0.3141785860061645,-0.1833061128854751,0.307155042886734,walking
1783087316283248600,7.16924853515625,-0.0263933552764356,0.0167344415766187,1.2987801663547751,0.2631722390651703,-0.1582813262939453,0.3407334089279175,walking
1783087316293292800,7.179292724609375,-0.0705946083135902,0.052623080956377,1.5271066914260387,0.2132299542427063,-0.1797336190938949,0.3915664851665497,walking
1783087316303337500,7.18933740234375,0.0870619051203131,-0.0007573577059432,1.6619763496428728,0.1908599883317947,-0.211758553981781,0.4605103135108948,walking
1783087316313381600,7.199381591796875,0.2278404951199889,-0.1179099930495955,1.5094541303575038,0.1806923002004623,-0.2344452291727066,0.5191871523857117,walking
1783087316323426800,7.2094267578125,0.2875266097977757,-0.3746184351323172,1.26354167971313,0.161839947104454,-0.2258376479148864,0.5463048219680786,walking
1783087316333470500,7.219470458984375,0.2953989506080746,-0.6871295197892934,0.9524439324527978,0.1365535110235214,-0.1832417249679565,0.5439274311065674,walking
1783087316343514600,7.2295146484375,0.3300869637601077,-0.9852938434574752,0.7709925558030605,0.1260162591934204,-0.1269717961549759,0.5292677879333496,walking
1783087316353559800,7.239559814453125,0.3997150651291012,-0.979265157752484,0.7379805130392313,0.1338467597961425,-0.0663614422082901,0.533190906047821,walking
1783087316363603700,7.249603759765625,0.3981397786363959,-0.7079796347901225,0.7441121476620435,0.1536741703748703,0.0301286056637763,0.5461618304252625,walking
1783087316373648600,7.259648681640625,0.408953871987015,-0.5020401154307649,0.7106190433830022,0.1485798060894012,0.1363365352153778,0.5510665774345398,walking
1783087316383692800,7.26969287109375,0.3658396835342049,-0.477589564785175,0.8826993650972843,0.096189945936203,0.1947540640830993,0.5430099368095398,walking
1783087316393736700,7.27973681640625,0.1879525752373039,-0.6439624321054667,1.2507155158877372,0.015724129974842,0.1884714066982269,0.5273529887199402,walking
1783087316403781600,7.28978173828125,0.0138490771323442,-0.8351889144469052,1.6092080515295266,-0.0504602342844009,0.1173421889543533,0.5169053077697754,walking
1783087316413825800,7.29982568359375,-0.1082154600471258,-0.829018847509846,1.8375357456445691,-0.0823129713535308,0.0410578064620494,0.5141196846961975,walking
1783087316423870500,7.309870361328125,-0.2951604656770825,-0.7970020263284444,1.7321815202474593,-0.0783839598298072,-0.0200154222548007,0.5093719959259033,walking
1783087316433914600,7.31991455078125,-0.4741628417395055,-0.8157302538044751,1.4507365684509277,-0.0676357075572013,-0.0699685961008071,0.48678919672966,walking
1783087316443958800,7.329958740234375,-0.6630922991849482,-0.9907401992298662,1.2071207043111325,-0.0693968683481216,-0.1144261285662651,0.4420090317726135,walking
1783087316454003500,7.34000341796875,-0.8987294395305215,-1.2483851732440292,1.0970008719474076,-0.066500149667263,-0.1526070833206176,0.3651142716407776,walking
1783087316464047600,7.350047607421875,-1.0357100985519587,-1.4875149780109524,0.954782604533434,-0.0443184487521648,-0.1854726821184158,0.2669183015823364,walking
1783087316474092800,7.3600927734375,-1.0744127541728317,-1.5679424135528504,0.8030559195399284,0.0008516914676874,-0.1967642307281494,0.1587923616170883,walking
1783087316484136700,7.37013671875,-1.1613196148619056,-1.6387589940540492,0.6750964791029691,0.0490029081702232,-0.1956521570682525,0.0641590803861618,walking
1783087316494180600,7.3801806640625,-1.2563820172168314,-1.6373787917420266,0.5957166529178619,0.0864956900477409,-0.1880970299243927,0.0073405401781201,walking
1783087316504225800,7.390225830078125,-1.3088716445192694,-1.5691918290920557,0.4903963297903537,0.095125563442707,-0.1690437346696853,0.0069877072237432,walking
1783087316514269700,7.400269775390625,-1.3012338431172072,-1.4668283099435269,0.2565717918246984,0.0960853621363639,-0.1367284059524536,0.0491732433438301,walking
1783087316524314600,7.410314697265625,-1.1301127218239009,-1.4095467721894384,0.005050269126892,0.0980545654892921,-0.106148712337017,0.1012575551867485,walking
1783087316534358800,7.42035888671875,-0.8357007364265621,-1.417782977876067,-0.4551315396636724,0.1062168926000595,-0.0540583468973636,0.0924901664257049,walking
1783087316544402700,7.430402587890625,-0.6287623056903481,-1.807117372635752,-0.9518260928153992,0.090436652302742,0.0109521755948662,0.0464506521821022,walking
1783087316554447600,7.440447509765625,-0.675872431911528,-1.9179669805787505,-1.121291848117113,0.0184231847524642,0.0543726235628128,0.0236926116049289,walking
1783087316564491800,7.45049169921875,-0.6783357532851397,-1.7068045024067162,-1.028280386942625,-0.0561898648738861,0.0492724515497684,0.0300521682947874,walking
1783087316574536400,7.460536376953125,-0.6239475988849997,-1.4650326586984097,-0.7980372145950794,-0.0824259966611862,0.0010929382406175,0.0538041032850742,walking
1783087316584580600,7.47058056640625,-0.7675282406933606,-1.309811701848358,-0.7389923204302787,-0.0575736984610557,-0.0915190055966377,0.057287011295557,walking
1783087316594624800,7.480624755859375,-1.0492376886449757,-1.3999842863351106,-0.8691554083913564,-0.0129780024290084,-0.1852231323719024,0.0365031696856021,walking
1783087316604669700,7.490669677734375,-1.3409211258612572,-1.5261197262153028,-0.9568968202084304,0.0341316536068916,-0.2875752747058868,-0.0229767374694347,walking
1783087316614713600,7.500713623046875,-1.5788656663663685,-1.7232053098484872,-0.9351268869489432,0.083580695092678,-0.306242972612381,-0.1584546715021133,walking
1783087316624758800,7.5107587890625,-2.4122693778969344,-1.9717410947337743,-1.3941671244889495,0.156086266040802,-0.0904157012701034,-0.2427244335412979,walking
1783087316634802700,7.520802734375,-2.5689889027416704,-1.0228175184268504,-2.5993787803083657,0.2466944605112075,0.0666956156492233,-0.1999551355838775,walking
1783087316644847600,7.53084765625,-0.1975111155688762,0.106697219237592,-2.6560680512577295,0.2591142952442169,0.2165967524051666,-0.1717999875545501,walking
1783087316654891800,7.540891845703125,0.0549067714467644,0.4827539983436465,-3.119384650942683,0.1244017705321312,0.4821791350841522,-0.1365477293729782,walking
