time,seconds_elapsed,accel_x,accel_y,accel_z,gyro_x,gyro_y,gyro_z,label
1783087549140013800,0.052013916015625,0.3835770002767443,-0.1696091092951595,-0.1428618260145187,-0.1004582941532135,-0.0593280382454395,0.3211983442306518,walking
1783087549150058000,0.06205810546875,0.4963184863809496,-0.2136068025842309,-0.1787771890044212,-0.0716922953724861,-0.0780742764472961,0.2955951988697052,walking
1783087549160102100,0.07210205078125,0.5536233319453895,-0.137396838606894,-0.1652852547466755,-0.0220581628382205,-0.0957323685288429,0.2849891483783722,walking
1783087549170146000,0.08214599609375,0.4951663206711411,-0.1122642970465123,-0.1576093132913112,0.022066855803132,-0.120898500084877,0.2933133840560913,walking
1783087549180191000,0.09219091796875,0.4661811953358352,-0.1498300575919449,-0.1186877542227506,0.0421934314072132,-0.1412442624568939,0.3062800467014313,walking
1783087549190235100,0.102235107421875,0.4871988489232957,-0.1836823505721986,-0.0455383468598127,0.041431363672018,-0.156245544552803,0.3132627606391907,walking
1783087549200279000,0.112279052734375,0.5419412235885859,-0.2144581587165594,0.0450344889909029,0.0367463342845439,-0.1644976139068603,0.29754239320755,walking
1783087549210323200,0.1223232421875,0.4764304944105446,-0.2844661993138492,-0.0013011457264423,0.0367484837770462,-0.1654755771160125,0.2684912979602813,walking
1783087549220368100,0.1323681640625,0.332114524064958,-0.3635695466451347,-0.0940793826669454,0.0403381586074829,-0.1793700903654098,0.2295712977647781,walking
1783087549230412000,0.142412109375,0.3575499940946698,-0.3961829454801976,-0.1772632773101329,0.045019257813692,-0.1948567628860473,0.1944622546434402,walking
1783087549240456200,0.152456298828125,0.3949051806293427,-0.3591781798183918,-0.2057195564657449,0.047934353351593,-0.1987039595842361,0.182183489203453,walking
1783087549250501000,0.162501220703125,0.2982233603790402,-0.3523597319751977,-0.1375093590706586,0.0403629839420318,-0.2032968550920486,0.181890532374382,walking
1783087549260545000,0.172544921875,0.2558575060755014,-0.3843151052929461,-0.0068769000321626,0.0313154272735118,-0.1770854890346527,0.1888967752456665,walking
1783087549270589200,0.182589111328125,0.1813021774373948,-0.45877734882012,0.1219195757508277,0.017706399783492,-0.1585181355476379,0.1966722160577774,walking
1783087549280633000,0.192633056640625,0.1660856113441288,-0.5373052343510091,0.2399094108372926,0.0106844436377286,-0.14031383395195,0.1983199119567871,walking
1783087549290678000,0.202677978515625,0.3816043850295245,-0.6191534964762627,0.1834831747382879,0.0017886385321617,-0.1315831243991851,0.1902936697006225,walking
1783087549300722200,0.21272216796875,0.5668525236137211,-0.5731324806660414,0.1047597666352987,-0.0191512629389762,-0.1557558476924896,0.1843921095132827,walking
1783087549310766000,0.22276611328125,0.6452817710757255,-0.5400520488411188,-0.0858545751571655,-0.0339904688298702,-0.1926080137491226,0.176007404923439,walking
1783087549320810000,0.23281005859375,0.6520731847815215,-0.5461269848406315,-0.2666004338860511,-0.0362424366176128,-0.2332624942064285,0.1687178015708923,walking
1783087549330855200,0.242855224609375,0.5903558565370738,-0.5212447647795081,-0.354265273335576,-0.0262991450726985,-0.2532806098461151,0.16728375852108,walking
1783087549340899000,0.252899169921875,0.4434193284295499,-0.5061392578452826,-0.3536813359677791,-0.004169076681137,-0.240781083703041,0.1680411696434021,walking
1783087549350943000,0.26294287109375,0.3857628198832273,-0.5237522175557912,-0.2516062783718109,0.0216993987560272,-0.1972820460796356,0.1570222675800323,walking
1783087549360987000,0.27298681640625,0.3652282736375927,-0.5008548877015709,-0.0673193860352039,0.0245143584907054,-0.1513316035270691,0.1420907229185104,walking
1783087549371032000,0.283031982421875,0.3254261323422193,-0.4254281830564141,0.0813975957483053,-0.0015231115976348,-0.1197406128048896,0.1152826845645904,walking
1783087549381076200,0.293076171875,0.3721731243394315,-0.4087454899333417,0.1478396144270896,-0.0412148647010326,-0.1253156810998916,0.0873583778738975,walking
1783087549391120000,0.303119873046875,0.4482521554134785,-0.4163444206297397,0.0380389310151338,-0.063501700758934,-0.1537416875362396,0.0683181583881378,walking
1783087549401164000,0.3131640625,0.3470373679086566,-0.3807503985486924,-0.1603390305161476,-0.0612734332680702,-0.1707044392824173,0.0661823004484176,walking
1783087549411209200,0.323209228515625,0.2517005325265228,-0.3724585171520709,-0.179641112357378,-0.0499023348093032,-0.1612513810396194,0.0706395804882049,walking
1783087549421252900,0.3332529296875,0.2298668863810598,-0.4663032142803072,-0.0542120671808719,-0.0665050148963928,-0.1430864930152893,0.0852467492222786,walking
1783087549431297000,0.343297119140625,0.3446523724682629,-0.5010452957071364,0.1113011511027812,-0.1206913888454437,-0.1203541010618209,0.1043576449155807,walking
1783087549441342200,0.35334228515625,0.5538378514789044,-0.500759610633552,0.2110381211400032,-0.1876784116029739,-0.1005377918481826,0.1244442760944366,walking
1783087549451385900,0.3633857421875,0.6928088075347244,-0.3873462896823882,0.1348240655094385,-0.2229287773370742,-0.0968109816312789,0.1605283915996551,walking
1783087549461430000,0.373429931640625,0.74168492051512,-0.3097643066994845,-0.1706196015119552,-0.1741660386323928,-0.0872497111558914,0.2431058287620544,walking
1783087549471474000,0.383473876953125,0.7815700639188289,-0.4794853519365191,-0.4287637572199106,-0.082624427974224,-0.1208779215812683,0.3319555819034576,walking
1783087549481519000,0.39351904296875,0.7215523791991174,-0.5278923861004412,-0.4262129036933183,-0.0159471295773983,-0.1616415977478027,0.3713765144348144,walking
1783087549491563000,0.40356298828125,0.6360571388736367,-0.5487343908600509,-0.3615758886098861,0.0044814031571149,-0.1889785975217819,0.3714669942855835,walking
1783087549501607000,0.41360693359375,0.5438827130451798,-0.545670034853369,-0.2035030494600534,-0.0023994059301912,-0.2018187642097473,0.3576443791389465,walking
1783087549511651000,0.423651123046875,0.4321821873612702,-0.5254371019028127,-0.0692068072170019,-0.0188026018440723,-0.1858693957328796,0.340795487165451,walking
1783087549521696000,0.433696044921875,0.3293593801379204,-0.4500273483924567,-0.0127776485085487,-0.0360697358846664,-0.1398960500955581,0.3156065046787262,walking
1783087549531740000,0.443739990234375,0.2907027556158602,-0.4473614901840687,0.0157142864823341,-0.0523642413318157,-0.0953046679496765,0.2783563435077667,walking
1783087549541784000,0.4537841796875,0.2833566306367516,-0.4656296989329159,-0.0311462488919496,-0.0577755197882652,-0.062938742339611,0.243155762553215,walking
1783087549551829000,0.4638291015625,0.2906073324173688,-0.4769581715464592,-0.1032698203384876,-0.0528745949268341,-0.0286083221435546,0.2220250964164734,walking
1783087549561873000,0.473872802734375,0.3840570388786494,-0.4617401441484689,-0.1174485678166151,-0.046852920204401,0.0098703633993864,0.2190274447202682,walking
1783087549571917000,0.4839169921875,0.489084662669897,-0.4671228601001203,-0.0799701932936906,-0.0337506160140037,0.0398970730602741,0.2183471322059631,walking
1783087549581961200,0.493961181640625,0.5674960822142661,-0.4470166222691535,-0.1163917522400617,-0.0049096466973423,0.0690818578004837,0.2120338529348373,walking
1783087549592006000,0.504005859375,0.620996640124917,-0.3918317645333707,-0.2469213354259729,0.051913071423769,0.0992298051714897,0.206512451171875,walking
1783087549602050000,0.514050048828125,0.6850444571435451,-0.3673458503134548,-0.2854021649897098,0.1390703469514846,0.1286822259426117,0.210825964808464,walking
1783087549612094200,0.52409423828125,0.6896440598934889,-0.3468485673382878,-0.3464104681819677,0.2224918007850647,0.1604014635086059,0.2219474017620086,walking
1783087549622138000,0.53413818359375,0.6335339040063321,-0.363940133523196,-0.2241238126844167,0.2534598410129547,0.1513136923313141,0.2207553833723068,walking
1783087549632183000,0.54418310546875,0.6300238500587642,-0.4528901904776692,-0.1264221478670835,0.2187261134386062,0.1142556890845298,0.2171565741300583,walking
1783087549642227000,0.55422705078125,0.6346906728260219,-0.6089696638531983,-0.0369026204615831,0.1268699616193771,0.0674793943762779,0.2052186876535415,walking
1783087549652271000,0.56427099609375,0.6403183034494518,-0.752993227123469,0.0374403806000947,0.020411929115653,0.0230454578995704,0.1998586803674698,walking
1783087549662315000,0.57431494140625,0.6320198461815715,-0.8526036481715739,0.0258025497764348,-0.0638968273997306,-0.0029424671083688,0.1762311160564422,walking
1783087549672360000,0.58435986328125,0.6563740968458354,-0.9066292528696358,-0.0601893880248069,-0.0992267131805419,-0.0082139447331428,0.1417682915925979,walking
1783087549682404000,0.594404052734375,0.5887324931189417,-0.9110157973907888,-0.1239572190582752,-0.089558370411396,0.0021185872610658,0.1144352033734321,walking
1783087549692448300,0.6044482421875,0.5060575709111989,-0.9534402500137686,-0.1399894854485988,-0.0666210427880287,0.0166364256292581,0.0957999303936958,walking
1783087549702493000,0.614492919921875,0.50464741185233,-1.0101302516154944,-0.1054039097577333,-0.0476755835115909,0.0200223699212074,0.0741558820009231,walking
1783087549712537000,0.624537109375,0.5381202039957046,-1.049033690505475,-0.112243400388956,-0.0383543670177459,0.0168816484510898,0.0481311306357383,walking
1783087549722581200,0.634581298828125,0.6127605805687606,-1.1089768486842513,-0.1871165628045797,-0.02925780788064,-0.0044633201323449,0.0263786986470222,walking
1783087549732625000,0.644625,0.6833591344051063,-1.1492746645420788,-0.2281692886829376,-0.0144589934498071,-0.0532290078699588,0.0165660977363586,walking
1783087549742670000,0.654670166015625,0.6930972690872848,-1.1220257153496145,-0.3100467769026756,0.0006632343865931,-0.0878929793834686,0.0164230838418006,walking
1783087549752714200,0.66471435546875,0.6668328008875251,-0.9878224120870231,-0.3242021435052156,0.0141530958935618,-0.110228955745697,0.0280085671693086,walking
1783087549762758100,0.674758056640625,0.6139088738210499,-0.8907752656556666,-0.2334679796129465,0.0381108932197093,-0.1246755421161651,0.043366216123104,walking
1783087549772802000,0.684802001953125,0.5721648046776652,-0.8183920203596353,-0.1237152269959449,0.0657407268881797,-0.1285979896783828,0.0600222200155258,walking
1783087549782847200,0.69484716796875,0.4877022684007883,-0.765414317279309,-0.0060270052045583,0.0799257904291153,-0.1319099068641662,0.0696016103029251,walking
1783087549792891100,0.70489111328125,0.348596726179868,-0.7029455861456692,0.1409726512670517,0.0823182165622711,-0.153183713555336,0.0705473721027374,walking
1783087549802935000,0.71493505859375,0.2368812951877713,-0.7146504908561706,0.2931494181156158,0.0778022930026054,-0.1878588646650314,0.0615450851619243,walking
1783087549812979000,0.72497900390625,0.2372479365430772,-0.7295214583821594,0.4180886339485645,0.0868092477321624,-0.2322314083576202,0.0501886345446109,walking
1783087549823024000,0.735024169921875,0.28024039831236,-0.7527985813342034,0.4226484892100095,0.1179581135511398,-0.2813148200511932,0.0396084263920784,walking
1783087549833068000,0.745068115234375,0.4357515702806412,-0.8678514861859381,0.3599146773993968,0.1784395724534988,-0.3611851930618286,0.0229323767125606,walking
1783087549843112000,0.75511181640625,0.6182892808623611,-0.8844685667268931,0.1832926206022501,0.2428390681743621,-0.4778260290622711,0.0037821177393198,walking
1783087549853157000,0.7651572265625,0.8132821299999952,-0.8502056471191346,-0.0846609814584255,0.3109734058380127,-0.6016726493835449,-0.0116935214027762,walking
1783087549863201000,0.775200927734375,0.9021345717988908,-0.7592178007267415,-0.3177081053107977,0.3767590820789337,-0.7065474390983582,-0.0003953271079808,walking
1783087549873245000,0.785244873046875,0.8360320142075419,-0.490890981439501,-0.6657330229520797,0.4168953895568847,-0.752559244632721,0.0373090505599975,walking
1783087549883289000,0.7952890625,0.7264744919016957,-0.2698898308202624,-0.9652724343657492,0.4343707859516144,-0.7234708666801453,0.0735842362046241,walking
1783087549893334300,0.805334228515625,0.6924734381005168,-0.0590193213321268,-1.02401922236681,0.4185233414173126,-0.6703852415084839,0.1214275807142257,walking
1783087549903378000,0.8153779296875,0.730196435034275,0.1947406279422342,-0.9829337632626296,0.3730783462524414,-0.5805767774581909,0.1838203966617584,walking
1783087549913422000,0.825422119140625,0.674170742560178,0.3394517350852489,-1.015904889494181,0.3170290887355804,-0.4635918736457824,0.2503467500209808,walking
1783087549923466000,0.835466064453125,0.5937783783316611,0.3869312791407108,-0.9593354455322026,0.2752321064472198,-0.291620135307312,0.2877362072467804,walking
1783087549933511000,0.845510986328125,0.4427402601242065,0.3199868638977408,-0.9315677331626416,0.2406498342752456,-0.0768341645598411,0.2884272933006286,walking
1783087549943555000,0.85555517578125,0.2473478902749717,0.2701404445804655,-0.8905605999916791,0.2035464197397232,0.1330815106630325,0.2709268629550934,walking
1783087549953599200,0.86559912109375,0.0720018447630107,0.2685544905632734,-0.8009481336057186,0.1716966181993484,0.3036058247089386,0.2553483247756958,walking
1783087549963643400,0.875643310546875,-0.0788293526954948,0.3424991399571299,-0.651588177743554,0.1527522206306457,0.4112974107265472,0.2563632428646087,walking
1783087549973688300,0.885688232421875,-0.1124393613524735,0.4336396926932037,-0.3934031055033207,0.1402578353881836,0.4264090061187744,0.2638243734836578,walking
1783087549983732200,0.895732177734375,-0.1108764959499239,0.4741033666372299,-0.1205073708653449,0.143403023481369,0.3432835042476654,0.2776522934436798,walking
1783087549993776400,0.9057763671875,-0.0611468348801136,0.4106612604267895,0.1250105275034904,0.1626427322626114,0.1905906945466995,0.295855313539505,walking
1783087550003821300,0.9158212890625,-0.102497813052684,0.2828343603283166,0.4493167159050703,0.1941785663366317,-0.0220877528190612,0.3183417320251465,walking
1783087550013865200,0.925865234375,-0.1864575143739581,0.1080798509687185,0.7033429149001836,0.2388878762722015,-0.2622838914394378,0.3316657245159149,walking
1783087550023909400,0.935909423828125,-0.3342141266927123,-0.1035321245364844,0.8689157544165849,0.289548397064209,-0.4796396493911743,0.3225443959236145,walking
1783087550033953300,0.945953369140625,-0.5222906205706298,-0.3050385933518409,1.0009516505122185,0.3404996395111084,-0.6626369953155518,0.2905320525169372,walking
1783087550043998200,0.955998291015625,-0.7094733804792165,-0.4940284026823938,1.027819783693552,0.393317312002182,-0.7798794507980347,0.2378906905651092,walking
1783087550054042400,0.96604248046875,-0.9020084612011908,-0.7150261923007667,0.7662509142339229,0.4371270835399627,-0.8286331295967102,0.1648775935173034,walking
1783087550064086300,0.976086181640625,-1.049440371610224,-0.8901156327031552,0.4274684567123651,0.4554802775382995,-0.8315144181251526,0.1065759435296058,walking
1783087550074130200,0.986130126953125,-1.234227322423458,-0.8831880253970622,0.0787631555914878,0.4500965476036072,-0.7613121271133423,0.0716111063957214,walking
1783087550084175400,0.99617529296875,-1.5102121091179548,-0.7827016982972621,-0.5269225181549787,0.4256519079208374,-0.599646270275116,0.0637092366814613,walking
1783087550094219300,1.00621923828125,-1.677437684277445,-0.5345813623450696,-1.076449082306027,0.3896664679050445,-0.3985881507396698,0.0970399677753448,walking
1783087550104263400,1.016263427734375,-1.5493698150299489,-0.1685612076774239,-1.287199034154415,0.3448547720909118,-0.2096991837024688,0.155850812792778,walking
1783087550114307000,1.02630712890625,-1.3678985646359625,0.0630428777597844,-1.33528823454082,0.2886684834957123,-0.034719455987215,0.2279508411884308,walking
1783087550124352300,1.036352294921875,-1.095686428347975,0.1505761997841298,-1.1401742432415485,0.228371575474739,0.0500329807400703,0.2832809388637543,walking
1783087550134396400,1.046396484375,-0.6644893065012991,-0.0499642004780471,-0.4620581240564584,0.1731829643249511,0.0523295924067497,0.2858012020587921,walking
1783087550144440000,1.056440185546875,-0.5390915332458913,-0.3523207151390612,0.1129471647441387,0.1433749943971634,0.0420079827308654,0.2558355927467346,walking
1783087550154485200,1.0664853515625,-0.697357410749793,-0.5163537778675555,0.4652098660856485,0.1439150273799896,0.0499893054366111,0.2239664793014526,walking
1783087550164529400,1.076529296875,-0.8140707961596548,-0.5576644240297377,0.7874310649067163,0.145789623260498,0.0525597855448722,0.198288545012474,walking
1783087550174573000,1.086572998046875,-0.6977735903352499,-0.597172258553654,1.109253619799018,0.1274973154067993,0.0237683355808258,0.1677733063697815,walking
1783087550184617200,1.0966171875,-0.4743555878326296,-0.7139870585113763,1.2553086888968945,0.0928019136190414,-0.0248870849609375,0.1391749531030655,walking
1783087550194662400,1.106662353515625,-0.1274661039620638,-0.8038331875227391,1.0095821162134408,0.0593358911573886,-0.0638159364461898,0.1222943887114524,walking
1783087550204706300,1.116706298828125,0.1732080105699598,-0.7761242196030914,0.584890138477087,0.050574891269207,-0.0904488861560821,0.1275290995836258,walking
1783087550214750200,1.126750244140625,0.3885920519597828,-0.7603475354090332,0.148711721086502,0.0745038241147995,-0.0715836733579635,0.1387882083654403,walking
1783087550224794000,1.136794189453125,0.4916374158926307,-0.7865009444497525,-0.2185141561090946,0.1216108873486518,-0.0125914542004466,0.1538875252008438,walking
1783087550234839300,1.14683935546875,0.4422831640064716,-0.7846018328301608,-0.3858013983279466,0.163790687918663,0.0554510354995727,0.1692313998937606,walking
1783087550244883200,1.15688330078125,0.3144423815131187,-0.8371339841000736,-0.2790986809313297,0.1876560747623443,0.0992387309670448,0.1745111048221588,walking
1783087550254927000,1.166927001953125,0.1948601626686751,-0.9922554260984062,0.0217214179426431,0.1835934668779373,0.1233562156558036,0.1676892936229705,walking
1783087550264971300,1.17697119140625,0.0327335180833935,-1.1661615019351244,0.3589841185510158,0.1617970913648605,0.1154916360974311,0.1511558592319488,walking
1783087550275016200,1.18701611328125,-0.0345282925456762,-1.255616293541342,0.6111170511454344,0.1366489231586456,0.1041986122727394,0.1414273977279663,walking
1783087550285060000,1.19706005859375,0.0689106007494032,-1.1877195460096002,0.8209779451996088,0.1075472384691238,0.0821015685796737,0.1550121903419494,walking
1783087550295104300,1.207104248046875,0.3085207363791764,-0.9965934553027151,1.0005512530177831,0.0663086473941803,0.0556419156491756,0.1891984492540359,walking
1783087550305149400,1.2171494140625,0.6237151053033769,-0.8921304796569048,0.9014046500891446,0.0230948589742183,0.0380253717303276,0.215511292219162,walking
1783087550315193000,1.227193115234375,0.7934424341507256,-0.9038917907297612,0.7389590026825666,-0.0190368331968784,0.0298647787421941,0.2528125643730163,walking
1783087550325237200,1.2372373046875,0.8422310149781406,-0.831834708648175,0.5580705206125974,-0.0551362447440624,0.01936393417418,0.3201623260974884,walking
1783087550335281400,1.247281494140625,0.9348447090066968,-0.8548492351412773,0.4144716124951839,-0.0656590461730957,0.0125238168984651,0.4000568091869354,walking
1783087550345326000,1.257326171875,0.8974193798452615,-1.0197560119643807,0.3483540034651756,-0.0447769314050674,-0.0079729352146387,0.4752631485462188,walking
1783087550355370200,1.267370361328125,0.741953508323431,-1.189754558968544,0.419012763056159,-0.0095749720931053,-0.0461368784308433,0.537777304649353,walking
1783087550365414100,1.2774140625,0.521053772252053,-1.4343020048700272,0.4397919317126273,0.0172289442270994,-0.0644517019391059,0.5773718357086182,walking
1783087550375458300,1.287458251953125,0.2640992647200822,-1.6277211749501526,0.3789554779559373,0.0352154038846492,-0.0584931448101997,0.594183087348938,walking
1783087550385503200,1.297503173828125,0.0302523687921464,-1.7099033452048895,0.3401923243194818,0.0357064083218574,-0.045277290046215,0.5859100222587585,walking
1783087550395547100,1.307547119140625,-0.2217129521504044,-1.741476441206783,0.4831897594124078,0.011084571480751,-0.0325956344604492,0.562580406665802,walking
1783087550405591300,1.31759130859375,-0.3625786359116434,-1.8386087817035617,0.7014736138969659,-0.0147590097039937,-0.0067363395355641,0.50138258934021,walking
1783087550415635500,1.327635498046875,-0.3196500331588089,-1.994977447284013,0.818987648165226,-0.0172098204493522,0.0024154128041118,0.4219756424427032,walking
1783087550425680100,1.33768017578125,-0.2976500905357301,-1.9474371129520236,0.8549883513510227,-0.0032220988068729,-0.024487042799592,0.373202234506607,walking
1783087550435724300,1.347724365234375,-0.1778990909956395,-1.730082940533012,0.741125240805745,0.0254554916173219,-0.0859107375144958,0.3684046268463135,walking
1783087550445768400,1.3577685546875,0.028831980600208,-1.6454874255262315,0.5601116710513829,0.064064934849739,-0.1559726446866989,0.3901250958442688,walking
1783087550455813000,1.367813232421875,0.1480208162128925,-1.6551973570272325,0.2701712781101465,0.105420596897602,-0.1919585019350052,0.4337264895439148,walking
1783087550465857300,1.377857177734375,0.1133092760547995,-1.636347841259092,-0.062891632720828,0.1425818055868148,-0.1876023709774017,0.4847351014614105,walking
1783087550475901400,1.3879013671875,0.1412460613809525,-1.661821743603051,-0.3204302237510681,0.1605472117662429,-0.1544470638036728,0.5310055613517761,walking
1783087550485945300,1.3979453125,0.2666131472371518,-1.711307512914389,-0.4855775313317775,0.1635283678770065,-0.1224851459264755,0.5783661603927612,walking
1783087550495990300,1.407990234375,0.4004920408509671,-1.7181306369327007,-0.6210989314556121,0.1693327873945236,-0.0901041626930236,0.6310924887657166,walking
1783087550506034400,1.418034423828125,0.381793770121783,-1.7180806603111325,-0.7468015328764915,0.1711277514696121,-0.069558672606945,0.6681873798370361,walking
1783087550516078300,1.428078369140625,0.3102776630491018,-1.854100365345925,-0.7963906164318323,0.174946591258049,-0.0587214604020118,0.6752018332481384,walking
1783087550526122200,1.438122314453125,0.1950584617197513,-2.0521717451460657,-0.8564408882468938,0.1960228532552719,-0.0568447262048721,0.661634624004364,walking
1783087550536167200,1.448167236328125,0.0137445938445627,-2.1553198388010264,-0.8666507320940494,0.2258051484823227,-0.0676783248782157,0.6292766332626343,walking
1783087550546211300,1.45821142578125,-0.1457848738543689,-2.1808670986421403,-0.8137474094241857,0.2611815333366394,-0.0936638563871383,0.5719704627990723,walking
1783087550556255200,1.468255126953125,-0.4272529142655432,-2.151787865282595,-0.7138426816046237,0.2921019494533539,-0.1278805881738662,0.5138782262802124,walking
1783087550566299100,1.478299072265625,-1.1256256395377218,-1.9558049821943044,-1.016271969240904,0.3051868677139282,-0.0453912951052188,0.494139164686203,walking
1783087550576344300,1.48834423828125,-2.300660037627816,-1.13517789625898,-2.018880739310384,0.2933863401412964,0.2006729245185852,0.5590604543685913,walking
1783087550586388200,1.49838818359375,-2.266783340858668,0.0342887847013771,-2.9735400097250935,0.2402946501970291,0.5470748543739319,0.6281988024711609,walking
1783087550596432100,1.50843212890625,-0.7359627434760332,0.701954675412178,-3.4329210235267875,0.1253935247659683,0.856123149394989,0.7173928022384644,walking
1783087550606476300,1.518476318359375,0.362507762632519,1.47882839820832,-3.396704047241806,0.0247196480631828,1.024381399154663,0.8591382503509521,walking
1783087550616521500,1.528521484375,1.1724454045102,2.1488466972641644,-3.024633068102598,0.0185008440166711,1.0428707599639893,0.9897597432136536,walking
1783087550626565000,1.538565185546875,1.9814033877007664,2.1115806503176686,-2.418149521976709,0.1112483590841293,1.002401351928711,1.0810012817382812,walking
1783087550636609300,1.548609375,1.7673399273902175,1.4268578263439238,-1.9610943207740783,0.193705677986145,0.975625455379486,1.1359755992889404,walking
1783087550646654500,1.558654541015625,0.9253170022048056,1.1613863964878022,-1.3963701874911785,0.2095536142587661,0.9220921993255616,1.1890740394592283,walking
1783087550656698000,1.568697998046875,0.457533486238867,1.115040386506915,-0.3890110080242157,0.2114217281341552,0.8305491209030151,1.1727484464645386,walking
1783087550666742300,1.5787421875,-0.0913162015639245,0.4902800099343061,0.5318190580248833,0.2075300514698028,0.6913033127784729,1.0646227598190308,walking
1783087550676786200,1.5887861328125,-1.0652528577700258,-0.2514204004108906,1.3422329391121863,0.2016125470399856,0.5056761503219604,0.8695563673973083,walking
1783087550686831400,1.598831298828125,-2.0072674584060906,-0.675785776541382,1.7662363500624894,0.1469434350728988,0.2860183417797088,0.6156079769134521,walking
1783087550696875300,1.608875244140625,-2.4208269244924185,-0.9249101749695836,1.9790093321710824,0.0369002930819988,0.0256166234612464,0.3660646378993988,walking
1783087550706919200,1.618919189453125,-2.0939640373453496,-0.7619814202211797,2.1389614091962574,-0.0732610970735549,-0.2742281258106231,0.1771115064620971,walking
1783087550716963300,1.62896337890625,-1.053011361964792,-0.2393015080720186,2.0543577108830213,-0.1282829493284225,-0.5676457285881042,0.0718682929873466,walking
1783087550727008300,1.63900830078125,-0.1264956514947116,0.4065390659302473,1.4899322682857512,-0.1111316457390785,-0.793176531791687,0.0238198060542345,walking
1783087550737052200,1.64905224609375,0.307814633936435,0.9965515158571302,0.5897065988481044,-0.077370747923851,-0.8580484390258789,0.0110267214477062,walking
1783087550747096300,1.659096435546875,0.7110906064175069,1.346248166102916,-0.0674924045145511,0.027735162526369,-0.8805018067359924,0.0426466986536979,walking
1783087550757140200,1.66914013671875,1.1553284116230904,1.472471576527506,0.3429489295512438,0.1760743856430053,-0.8196138739585876,0.1195784285664558,walking
1783087550767185200,1.67918505859375,1.294821199595928,1.56123823973909,0.5364619153946638,0.2583218216896057,-0.6972150206565857,0.2181145846843719,walking
1783087550777229300,1.689229248046875,1.2679381611064076,1.734277761874348,0.6417004054576159,0.2664806842803955,-0.4729824662208557,0.3497519493103027,walking
1783087550787273200,1.699273193359375,1.1896202650643883,1.8627401833973825,0.6850619928002357,0.2031951695680618,-0.1835082024335861,0.4876924157142639,walking
1783087550797318100,1.709318115234375,1.2439333084017037,1.763539512193948,0.6627636517524719,0.0765912979841232,0.1103841289877891,0.6066116690635681,walking
1783087550807362300,1.7193623046875,1.144999325310439,1.4497804367698728,0.6019248599082231,-0.0913068950176239,0.3409392833709717,0.6668755412101746,walking
1783087550817406200,1.72940625,0.8695733415424823,0.9508556403480468,0.6734948891252279,-0.2579613029956817,0.4638900458812713,0.6620821356773376,walking
1783087550827450400,1.739450439453125,0.2748721492774784,0.4127218462184071,0.813334736970067,-0.3419195711612701,0.4800429344177246,0.634040355682373,walking
1783087550837495300,1.749495361328125,-0.3394757004827261,-0.0499522177793085,0.9357721991151572,-0.3065617978572845,0.430549293756485,0.5763497948646545,walking
1783087550847539200,1.759539306640625,-0.607795359376818,-0.2525323071755468,0.9527262565255163,-0.1823367774486541,0.3280801773071289,0.4904996454715729,walking
1783087550857583400,1.769583251953125,-0.4675606669954955,-0.248983820913732,1.1907424009621144,-0.0367467701435089,0.1638660877943039,0.4214501976966858,walking
1783087550867627300,1.779627197265625,-0.1181609538696706,-0.1851268502920866,1.3258534667193889,0.0717256441712379,0.0178604144603014,0.3578405976295471,walking
1783087550877672200,1.789672119140625,0.1304163320697844,-0.0517982840374112,1.0448527515590191,0.1024932339787483,-0.0524730198085308,0.2987094521522522,walking
1783087550887716400,1.79971630859375,0.2815237161211669,0.0820239109531044,0.6879980462521315,0.0763021111488342,-0.0637435168027877,0.2501618862152099,walking
1783087550897760300,1.80976025390625,0.6553843551561236,0.0895186506226658,0.4514887992471456,0.0222491435706615,-0.0381724461913108,0.2183248400688171,walking
1783087550907804200,1.81980419921875,0.9457930962614716,-0.0375397493213415,0.0818523537784814,-0.0477174259722232,0.0197401195764541,0.2117020934820175,walking
1783087550917849300,1.829849365234375,0.9810434194713832,-0.1583367507830262,-0.3088935152143239,-0.104559488594532,0.0840197280049324,0.2161329984664917,walking
1783087550927893200,1.839893310546875,0.9562196515992284,-0.2667978561542928,-0.4614221642404794,-0.122377373278141,0.1127642914652824,0.2280743420124054,walking
1783087550937937200,1.849937255859375,0.9119492788486182,-0.3636713995844126,-0.4450216490596532,-0.094672217965126,0.1134028509259224,0.257429838180542,walking
1783087550947982300,1.859982421875,0.8205017059899866,-0.3510935114316642,-0.2576958274185657,-0.0488951429724693,0.0720261186361312,0.2768070101737976,walking
1783087550958026800,1.87002685546875,0.7752497748561203,-0.323659561061114,0.1117582472205162,-0.0134693970903754,0.0250716879963874,0.2880571186542511,walking
1783087550968070700,1.880070556640625,0.5639888047456741,-0.2441499710164964,0.3597860825836658,0.0184240862727165,0.0040454971604049,0.2877942621707916,walking
1783087550978114600,1.890114501953125,0.3539678978241979,-0.1201519815564155,0.5942237840116024,0.0423777066171169,0.0017084078863263,0.2869166135787964,walking
1783087550988159700,1.90015966796875,0.2568843649052083,0.014492927993834,0.7680968343615532,0.0489698313176631,0.036392617970705,0.2956547141075134,walking
1783087550998203400,1.910203369140625,0.3347505716569721,0.0982009926415979,0.8107318609952926,0.0261192359030246,0.1058609262108802,0.3096130788326263,walking
1783087551008247600,1.92024755859375,0.4832900049164891,0.0673496350429952,0.6878355491667986,-0.0389186181128025,0.1784477829933166,0.3167420923709869,walking
1783087551018291700,1.930291748046875,0.6124032915636897,-0.0680932930171489,0.5151671984314918,-0.1428050994873047,0.2014796584844589,0.3149138391017914,walking
1783087551028336600,1.940336669921875,0.7791986586123705,-0.3548487723119556,0.2226917340546846,-0.2292662113904953,0.1923263818025589,0.2917166352272033,walking
1783087551038380500,1.950380615234375,0.8310077563047409,-0.6240355694293975,-0.1277314768999815,-0.2607363164424896,0.1690176576375961,0.2523436546325683,walking
1783087551048424700,1.9604248046875,0.8448694006577133,-0.6648939417794346,-0.2466384268313646,-0.2489062845706939,0.1637520641088485,0.2248680889606475,walking
1783087551058468600,1.970468505859375,0.697400373108685,-0.6325752881072462,-0.2923819408744573,-0.2299783825874328,0.1824298501014709,0.203095480799675,walking
1783087551068513500,1.980513427734375,0.5367698123000562,-0.64030310588032,-0.2899368858098983,-0.2088595181703567,0.2210720628499984,0.1830466836690902,walking
1783087551078557700,1.9905576171875,0.3270287452332675,-0.6557261543311178,-0.1755763471364974,-0.1886532604694366,0.2508597075939178,0.1603600829839706,walking
1783087551088601600,2.0006015625,0.2243777874454856,-0.7686572447232901,0.1610813733160495,-0.1683943271636963,0.2666743397712707,0.1092976927757263,walking
1783087551098645800,2.010645751953125,0.1835877310913056,-0.8717873643301427,0.3790378955423831,-0.15276400744915,0.2862758040428161,0.0468610115349292,walking
1783087551108690700,2.020690673828125,0.0739224375620484,-0.9032122840330004,0.3848772692203521,-0.137207955121994,0.3201908767223358,-0.0282326750457286,walking
1783087551118734600,2.030734619140625,-0.0026014877352863,-1.0788009061291812,0.3540624442398548,-0.1265948861837387,0.3693955242633819,-0.1161037310957908,walking
1783087551128778800,2.04077880859375,-0.0001871200699359,-1.1240320867359637,0.2080892082065343,-0.1295632421970367,0.3898203670978546,-0.1941657811403274,walking
1783087551138823700,2.05082373046875,0.1761401915643364,-0.9986138552144168,0.2940332152128219,-0.1456697285175323,0.3066803812980652,-0.2405182421207428,walking
1783087551148867600,2.06086767578125,0.5851736315935849,-0.8451360887698829,0.4936684833288192,-0.1544823944568634,0.1375177204608917,-0.2497010678052902,walking
1783087551158911700,2.070911865234375,0.758698818353936,-0.7016853569515049,0.375442501398921,-0.1416878998279571,-0.021968338638544,-0.2174560576677322,walking
1783087551168955600,2.08095556640625,0.5783818525616079,-0.6926490869283676,0.0579109216988086,-0.0894089862704277,-0.1324085593223571,-0.1773246079683303,walking
1783087551179000600,2.09100048828125,0.4102832208946347,-0.7867785923473537,-0.1294306820333003,-0.0103775467723608,-0.1994376629590988,-0.1535622924566269,walking
1783087551189044700,2.101044677734375,0.4880579499706625,-0.8373939502105117,-0.201817872852087,0.074614442884922,-0.2391795367002487,-0.1592602729797363,walking
1783087551199088600,2.111088623046875,0.6256761031780391,-0.7749705195233225,-0.3382283307701349,0.1316449493169784,-0.2574878633022308,-0.1652446538209915,walking
1783087551209132500,2.121132568359375,0.7152570053819567,-0.6861120863750576,-0.4017582613945007,0.1559087485074997,-0.2631817162036896,-0.1687736064195633,walking
1783087551219177700,2.131177734375,0.8032473504588007,-0.6334599619872868,-0.3428834630995989,0.1469498872756958,-0.2643902897834778,-0.1748711168766021,walking
1783087551229221600,2.1412216796875,0.6632365299612283,-0.532279222882539,-0.4103974949240684,0.1109806969761848,-0.2578093409538269,-0.1603395789861679,walking
1783087551239265800,2.151265869140625,0.5744810457307845,-0.5208990200817585,-0.6026110886067152,0.055195715278387,-0.2122754007577896,-0.1353147178888321,walking
1783087551249309400,2.161309326171875,0.4884910076256841,-0.4766955750875175,-1.044420205360651,-0.0103361587971448,-0.1203774288296699,-0.1173612847924232,walking
1783087551259354600,2.171354736328125,0.4732295794773846,-0.2551047880120575,-1.5162924519449472,-0.0629583299160003,-0.0213691443204879,-0.098677672445774,walking
1783087551269398800,2.181398681640625,0.5829175962951034,0.179134770270437,-1.6815496496409177,-0.0904631912708282,0.06022185459733,-0.0729909539222717,walking
1783087551279442400,2.1914423828125,0.6355976316031068,0.5417429245375096,-1.6969395264744758,-0.0876761898398399,0.1347967535257339,-0.0500587411224842,walking
1783087551289487600,2.201487548828125,0.3210695445679128,0.6451642821758985,-1.8662568132162096,-0.0540250204503536,0.2463672161102295,-0.0548300594091415,walking
1783087551299531800,2.21153173828125,-0.1466352801386266,0.4424310480445623,-1.932017279371619,0.0097487978637218,0.3480639159679413,-0.1323402374982834,walking
1783087551309575700,2.22157568359375,-0.3339903278741985,0.0326326880574226,-1.4838181693196295,0.0848166495561599,0.4105041325092315,-0.2900094985961914,walking
1783087551319619600,2.23161962890625,-0.4836396951369941,-0.1481777603402733,-0.9731406835228203,0.1375109553337097,0.4308119714260101,-0.4721378087997436,walking
1783087551329664800,2.241664794921875,-0.5680719824060797,-0.0899978124417364,-0.605709054622054,0.1517234444618225,0.4183340072631836,-0.6502090096473694,walking
1783087551339708700,2.251708740234375,-0.3669605773229151,0.0594080283887684,-0.4180962327331304,0.1330445110797882,0.3656572699546814,-0.7928125858306885,walking
1783087551349752600,2.261752685546875,-0.1450712456922978,0.2897816952481866,-0.5221078113496304,0.0990676507353782,0.279645711183548,-0.9023542404174804,walking
1783087551359796500,2.27179638671875,0.1391870830245316,0.3858825007401406,-0.5990069266349077,0.0634397119283676,0.162283718585968,-0.9909589290618896,walking
1783087551369841700,2.281841552734375,0.4231592882763594,0.5026660287767648,-0.6586158844232559,0.0394531525671482,0.0274494737386703,-1.0628466606140137,walking
1783087551379885600,2.291885498046875,0.6185971047025174,0.672238605453819,-0.5779390041649342,0.0382982231676578,-0.1338943094015121,-1.1128005981445312,walking
1783087551389929500,2.301929443359375,0.8318675880044698,0.7837810179665684,-0.2743067704796791,0.075589396059513,-0.3284781575202942,-1.134335160255432,walking
1783087551399973600,2.3119736328125,0.8632679577879607,0.9530239242978392,0.2032160492122173,0.1582682430744171,-0.5648047924041748,-1.102396845817566,walking
1783087551410018600,2.3220185546875,0.7409764799848199,1.302098497122526,0.7376689628720283,0.2574637830257416,-0.7794630527496338,-0.997876763343811,walking
1783087551420062500,2.3320625,0.6572163928888738,1.6389274824887514,1.1149392642199991,0.3712874352931976,-1.0277576446533203,-0.8600339889526367,walking
1783087551430106600,2.342106689453125,0.6480284394353628,1.6794858489789068,1.8439900363504889,0.5208109021186829,-1.233424425125122,-0.7136602401733398,walking
1783087551440151800,2.35215185546875,0.5863286468476057,1.692690636858344,2.0421803663551805,0.6759368181228638,-1.3575600385665894,-0.5961741805076599,walking
1783087551450195500,2.362195556640625,0.4564845617078244,1.5897750367850063,2.150271323239803,0.8182913064956665,-1.417525291442871,-0.5256502628326416,walking
1783087551460239600,2.372239501953125,0.1060173654809594,1.395708800972998,2.364832942330837,0.9174281358718872,-1.4089692831039429,-0.4881342947483063,walking
1783087551470283800,2.38228369140625,-0.484026794758439,1.0835362640880049,1.9867975018292665,0.9138157963752748,-1.230742573738098,-0.4715688824653625,walking
1783087551480328400,2.392328369140625,-1.20611342696473,0.6405100996945053,1.038181603232026,0.7521068453788757,-0.93658709526062,-0.4674643874168396,walking
1783087551490372600,2.40237255859375,-1.8906363444522023,0.0854158914789557,-0.3331961818218231,0.4427348971366882,-0.5565627813339233,-0.4756943583488464,walking
1783087551500416500,2.41241650390625,-2.118792189131677,-0.3698118020355701,-1.7057728212714194,0.1014973893761634,-0.104278840124607,-0.5096699595451355,walking
1783087551510460700,2.422460693359375,-2.129270913048088,-0.5350885812148451,-2.6692344068229197,-0.1436668336391449,0.4415591955184936,-0.5577663779258728,walking
1783087551520505600,2.432505615234375,-2.1499524665489793,-0.3767763072859496,-3.3671605573713776,-0.2515017390251159,0.916848123073578,-0.5803617835044861,walking
1783087551530549500,2.442549560546875,-1.6946948162876068,-0.0808145351633429,-3.0156144798666236,-0.2547199130058288,1.2028231620788574,-0.5830928683280945,walking
1783087551540593700,2.45259375,-1.0282802408121523,0.239798278613016,-2.1092945852071048,-0.2272733896970749,1.3130013942718506,-0.5745140910148621,walking
1783087551550637800,2.462637939453125,-0.4288303927153348,0.5977897328648716,-1.147808683642745,-0.209197461605072,1.3654366731643677,-0.6213897466659546,walking
1783087551560682500,2.4726826171875,-0.2970987402632832,0.7300404407549649,-0.265608500239253,-0.2150361835956573,1.3167474269866943,-0.6492835879325867,walking
1783087551570726700,2.4827265625,-0.173915428186953,0.8313629994831979,0.7099468432098627,-0.2401428669691085,1.112524151802063,-0.6219755411148071,walking
1783087551580770800,2.492770751953125,0.1285116674922406,0.8341996111486106,1.3914245477825402,-0.2529125809669494,0.8469586372375488,-0.5572143793106079,walking
1783087551590815500,2.5028154296875,0.172504538475722,0.85993786351718,1.554476928910613,-0.2143771797418594,0.5884801745414734,-0.4631696939468384,walking
1783087551600859600,2.512859619140625,0.1527116043776273,0.7083468606673181,1.6149603314459322,-0.1242044195532798,0.3518116772174835,-0.3713648915290832,walking
1783087551610903800,2.52290380859375,0.0120103173978626,0.3112669663473963,1.6306909845411777,-0.0246440079063177,0.1439090967178344,-0.3158677816390991,walking
1783087551620947700,2.53294775390625,-0.2365767592832446,-0.099846202565357,1.5096101977020502,0.0419931001961231,-0.013846181333065,-0.3241070508956909,walking
1783087551630992600,2.54299267578125,-0.3744914842844009,-0.4696059090875089,1.3676491199195384,0.0591102987527847,-0.1297139227390289,-0.3884146809577942,walking
1783087551641036800,2.553036865234375,-0.4439829536616801,-0.7465974616717547,1.2091630237936972,0.0389261655509471,-0.1800588369369506,-0.4813122749328613,walking
1783087551651080700,2.563080810546875,-0.5438043871119618,-0.8649171132344752,0.9556190553575754,0.0045428923331201,-0.1479056924581527,-0.5774505138397217,walking
1783087551661124600,2.57312451171875,-0.6959941595725715,-0.9019857379127292,0.699744598147273,-0.0225078146904706,-0.0563618205487728,-0.6549990177154541,walking
1783087551671169500,2.58316943359375,-0.8705524157077074,-0.7108231145877391,0.5084077872991561,-0.0216215141117572,0.0605381689965724,-0.712250292301178,walking
1783087551681213700,2.593213623046875,-0.6964794588714838,-0.4991819860532879,0.674427201539278,0.0271384567022323,0.1709426790475845,-0.7631953358650208,walking
1783087551691257600,2.603257568359375,-0.499097084248811,-0.6167445356383919,0.880715497803688,0.0698252022266388,0.2668598890304565,-0.7684960961341858,walking
1783087551701301500,2.613301513671875,-0.5354825489684939,-0.7374287243753671,1.0082722026586532,0.0954706594347953,0.2890367805957794,-0.7542831897735596,walking
1783087551711346700,2.6233466796875,-0.42073140354231,-0.9129467654533684,1.3115999004393817,0.1221608594059944,0.2752985954284668,-0.7667286992073059,walking
1783087551721390800,2.633390869140625,-0.1537010538063943,-1.13104408438988,1.700804969730973,0.1430534720420837,0.2458256781101226,-0.8220988512039185,walking
1783087551731434500,2.6434345703125,0.0287757203683257,-1.292111648376286,1.963340638396144,0.1456436663866043,0.215405985713005,-0.884147047996521,walking
1783087551741479700,2.653479736328125,-0.0878562703683972,-1.3489116862237454,2.009046743038297,0.1130047813057899,0.188053160905838,-0.9296875,walking
1783087551751523800,2.66352392578125,-0.1766571281105279,-1.434508194966614,1.8415467348515984,0.0620680935680866,0.1801936477422714,-0.9730847477912904,walking
1783087551761567500,2.6735673828125,-0.2096598185241222,-1.6122870205834507,1.579824136134982,0.0064135985448956,0.1878263354301452,-1.0084939002990725,walking
1783087551771611600,2.683611572265625,-0.2516137310259044,-1.6880967331968246,1.284403265956044,-0.0397091545164585,0.2035941183567047,-1.0061180591583252,walking
1783087551781656800,2.69365673828125,-0.2837389079526066,-1.6292917852677404,0.9137696261435748,-0.0672447979450225,0.1835887432098388,-0.9657358527183532,walking
1783087551791700500,2.703700439453125,-0.2461227323941886,-1.5205815274409948,0.6823749456733464,-0.0724081397056579,0.1307439059019088,-0.9049870371818542,walking
1783087551801744600,2.71374462890625,-0.1309884328693151,-1.3363614167302846,0.3826695300430059,-0.0363552868366241,0.0884384512901306,-0.8172363638877869,walking
1783087551811788500,2.72378857421875,-0.1222974691525101,-1.0554431191563605,0.1016442649632692,0.0465257503092289,0.0947520062327385,-0.6937586069107056,walking
1783087551821833700,2.733833740234375,-0.2154384019255638,-0.7929468326535075,-0.0543371548652648,0.1499381363391876,0.1435030847787857,-0.5680783987045288,walking
1783087551831877600,2.743877685546875,-0.4047977752208709,-0.7131655129954219,0.0202887547910213,0.2142521440982818,0.1654768139123916,-0.4652553498744964,walking
1783087551841921500,2.753921630859375,-0.6467068354427814,-0.6566790711417794,0.4049813150942325,0.2600137889385223,0.1494855135679245,-0.3360916972160339,walking
1783087551851965700,2.763965576171875,-0.7812311873532831,-0.6622258916139603,0.4400415225595235,0.2347998023033142,0.1012716516852378,-0.207553431391716,walking
1783087551862010600,2.7740107421875,-0.8895498155139386,-0.9083223935883492,0.1795271305888891,0.1652747541666031,-0.0057013351470232,-0.0979987010359764,walking
1783087551872054500,2.784054443359375,-0.9823002876646816,-1.2833183933287855,-0.4208306261330842,0.1008670106530189,-0.051315426826477,-0.0335749723017215,walking
1783087551882098700,2.7940986328125,-1.0333113668471574,-1.814882307548821,-1.4365502221882342,0.0688981190323829,-0.0442627444863319,-0.0401640273630619,walking
1783087551892143600,2.8041435546875,-1.2230689456798136,-2.2039289714083075,-2.0742209337383506,0.0849226266145706,-0.0294893905520439,-0.0917736962437629,walking
1783087551902187500,2.8141875,-1.3546516911804676,-2.3005732361271978,-2.443935120618343,0.1371838003396988,-0.0036620399914681,-0.1745674461126327,walking
1783087551912231700,2.824231689453125,-1.4823115641489624,-2.230132357070595,-2.321494151341915,0.1882794797420501,0.0017513679340481,-0.2712884247303009,walking
1783087551922275600,2.834275634765625,-1.7885292842827736,-2.16232474912703,-1.910469464430213,0.2048976421356201,0.0015390310436487,-0.3815522491931915,walking
1783087551932320500,2.844320556640625,-2.3697300667226315,-2.2408777690991757,-1.675808475640416,0.1758457422256469,0.058942936360836,-0.4917514622211456,walking
1783087551942364700,2.85436474609375,-3.254541601668298,-2.1144702342793344,-2.01318048184216,0.0843517333269119,0.2117325961589813,-0.5309770703315735,walking
1783087551952408600,2.86440869140625,-3.5794530624866483,-1.4187430550798772,-2.8326299023002384,-0.0464422293007373,0.4144726693630218,-0.5202309489250183,walking
1783087551962452200,2.8744521484375,-2.659144097702205,-0.871947596393153,-3.4684891805142164,-0.1666812449693679,0.595333456993103,-0.5076770186424255,walking
1783087551972497200,2.8844970703125,-1.4407929743245242,-0.1437568751581013,-3.696555008822679,-0.2427432537078857,0.7019237875938416,-0.4318853318691253,walking
1783087551982541300,2.894541259765625,-0.5085988528918475,1.21290900538899,-3.7350837691813705,-0.2660569250583648,0.7583081722259521,-0.2990909218788147,walking
1783087551992585200,2.904585205078125,0.3206353178691118,2.0960370442271232,-3.4628561430633065,-0.2182838022708892,0.758107602596283,-0.1870317757129669,walking
1783087552002630100,2.914630126953125,0.8178731110520661,2.1419532844886184,-2.794690340006351,-0.127474308013916,0.7115523815155029,-0.1045145168900489,walking
1783087552012674300,2.92467431640625,0.5940301611356437,2.027155523441732,-2.069721868753433,-0.0244075711816549,0.6032389998435974,0.004610632546246,walking
1783087552022718200,2.93471826171875,0.6423506129946559,2.2155475130096076,-1.1478554453939198,0.125286117196083,0.4401393830776214,0.0738475993275642,walking
1783087552032762400,2.944762451171875,1.0277319592796266,1.6739885667368768,0.1721972260922193,0.3148605525493622,0.2089394479990005,0.087592177093029,walking
1783087552042807300,2.954807373046875,0.4083106056474149,1.3191929859168827,1.1673977657318115,0.4779886603355407,-0.0152310421690344,0.1107674911618232,walking
1783087552052851200,2.964851318359375,-0.5214144953232258,1.106212206276506,1.8808505712360144,0.600882887840271,-0.2430255860090255,0.0950095653533935,walking
1783087552062895400,2.974895263671875,-0.8425508945822715,0.7520690249506383,2.752756155118346,0.6551466584205627,-0.4630753695964813,0.0245036445558071,walking
1783087552072939300,2.984939208984375,-1.0586002680130302,0.5840000577695668,3.1105525251895187,0.6059921383857727,-0.6630425453186035,-0.0491780340671539,walking
1783087552082984200,2.994984130859375,-1.010969478918612,0.5844500665593892,3.320116482123733,0.4856974482536316,-0.8758701682090759,-0.1583892107009887,walking
1783087552093028400,3.0050283203125,-0.3146960640132427,0.6065652695925906,3.502199726936221,0.3185880780220032,-1.051603078842163,-0.2774093151092529,walking
1783087552103072300,3.015072265625,0.1839319414190948,0.9289515593148768,3.0842239057123657,0.1302633285522461,-1.1255732774734497,-0.3640510141849518,walking
1783087552113116200,3.0251162109375,0.4627877535052597,1.2516938594006002,2.3209704197287557,-0.0399046726524829,-1.0674258470535278,-0.4344655275344848,walking
1783087552123161300,3.035161376953125,0.8339220363162457,1.3913466602407396,1.5397177511960267,-0.1522386968135833,-0.912481129169464,-0.4788204133510589,walking
1783087552133205200,3.045205322265625,1.0311797616459428,1.5068115068942307,0.7558446710318326,-0.1862653791904449,-0.7037034630775452,-0.4691949486732483,walking
1783087552143249200,3.055249267578125,1.1833563823640345,1.6834397011712192,0.1418044259160757,-0.1559850424528122,-0.451667308807373,-0.4112669825553894,walking
1783087552153294300,3.06529443359375,1.341883102761209,2.0636732362389565,-0.3871797009438276,-0.0747378543019294,-0.1463923752307891,-0.2933725714683532,walking
1783087552163338200,3.075338134765625,1.2998612395897506,2.365926728916913,-0.6618710868269204,-0.0033393369521945,0.1650851219892501,-0.1490677595138549,walking
1783087552173382400,3.08538232421875,1.1832611052960156,2.322270542541891,-0.4541787689834833,-0.0265434589236974,0.4314059913158417,-0.0517966002225875,walking
1783087552183426000,3.095426025390625,0.880953252082318,1.872616411375999,-0.1059872626036405,-0.1526670753955841,0.6183914542198181,-0.0156035609543323,walking
1783087552193471200,3.10547119140625,0.4039902582302689,1.320953565848619,0.3002268091559409,-0.3180847764015198,0.7521910667419434,-0.0128133678808808,walking
1783087552203515400,3.115515380859375,-0.0408101492941379,0.9662675828829408,0.5796668508708477,-0.4548542499542236,0.8112293481826782,-0.0266180634498596,walking
1783087552213559000,3.12555908203125,-0.185660372646898,0.6989882268220186,0.8268418687969445,-0.509160578250885,0.7755717635154724,-0.0609896220266819,walking
1783087552223603200,3.135603271484375,-0.078864058682695,0.6402879083111882,0.9238169729053972,-0.4746739864349365,0.6663967370986938,-0.0935122072696685,walking
1783087552233648400,3.1456484375,0.0686971041291952,0.7181490735616535,0.8899135342597961,-0.3864498436450958,0.4737894833087921,-0.1348186433315277,walking
1783087552243692000,3.155692138671875,0.2299316221803426,0.7016578113574534,0.7574836704105138,-0.2854439616203308,0.2513070702552795,-0.1793576031923294,walking
1783087552253736200,3.165736083984375,0.284958951266855,0.736659274372831,0.4876145901173352,-0.1988518089056015,0.0557037368416786,-0.2056789547204971,walking
1783087552263780400,3.1757802734375,0.3382517847109585,0.8395040742322802,0.1154448267787694,-0.1551918089389801,-0.0954522490501403,-0.2032194584608078,walking
1783087552273825300,3.1858251953125,0.5621793441709131,0.7693258646998554,0.0195639476478099,-0.1538964509963989,-0.2240608185529709,-0.2090565711259842,walking
1783087552283869200,3.195869140625,0.8258943588137626,0.5756440250955521,0.0176730193346738,-0.1664077043533325,-0.290036678314209,-0.2215924710035324,walking
1783087552293913300,3.205913330078125,0.8519104782756417,0.4464797389134764,0.0856038152664899,-0.1692429035902023,-0.3123217523097992,-0.232130080461502,walking
1783087552303957200,3.215957275390625,0.8668081146128476,0.2750144803576171,0.3277607127696275,-0.1736358702182769,-0.3119780123233795,-0.2483697682619094,walking
1783087552314002200,3.226002197265625,0.8717137145720422,0.0907561565283685,0.6394938353240489,-0.1892276257276535,-0.2764671444892883,-0.2765790522098541,walking
1783087552324046300,3.23604638671875,0.6745211634330451,-0.0175620332408696,0.7772323269754647,-0.2286639362573623,-0.2115220725536346,-0.3067794144153595,walking
1783087552334090200,3.24609033203125,0.4326959821023047,-0.0859444453977048,0.760239691120386,-0.2878082394599914,-0.1319553405046463,-0.3254724144935608,walking
1783087552344135200,3.25613525390625,0.3685471889272332,-0.1790934153467416,0.6148369484513998,-0.3456604778766632,-0.0563267953693866,-0.340160608291626,walking
1783087552354179000,3.266178955078125,0.3885948284387588,-0.1869089844685047,0.4598924704551697,-0.3682425022125244,0.0131319072097539,-0.3382231593132019,walking
1783087552364223200,3.27622314453125,0.3611433424115181,-0.1524625249873846,0.2406102525830268,-0.3482864499092102,0.0823633074760437,-0.3061762750148773,walking
1783087552374267400,3.286267333984375,0.4676650041528046,-0.211277190592885,0.0273848505318164,-0.3022438585758209,0.1288450509309768,-0.267570823431015,walking
1783087552384312000,3.29631201171875,0.586573415388912,-0.3007652999468148,0.0079033204704523,-0.2603791058063507,0.1482952386140823,-0.2329219579696655,walking
1783087552394356200,3.306356201171875,0.4857129942797124,-0.4301352647688239,-0.0334510187029838,-0.2419660240411758,0.1647778153419494,-0.2137914150953292,walking
1783087552404400400,3.316400390625,0.37674043225497,-0.6806851659554988,-0.0029161797076463,-0.2462480962276458,0.18849878013134,-0.2171637713909149,walking
1783087552414444300,3.3264443359375,0.3001340163059532,-0.9484942449789494,0.0037789340168237,-0.2736171185970306,0.2148137390613556,-0.2442822158336639,walking
1783087552424489200,3.3364892578125,0.1128496957190334,-1.1170116135146468,6.42974078655e-05,-0.3041949272155761,0.2421831041574478,-0.2738028168678283,walking
1783087552434533400,3.346533447265625,0.0692072456084191,-1.0780956074040382,0.0025128596037626,-0.319630354642868,0.2528669238090515,-0.2732393145561218,walking
1783087552444577300,3.356577392578125,0.0607166267693042,-0.9327958867181092,0.1334685592472553,-0.314163476228714,0.2159250378608703,-0.2589775919914245,walking
1783087552454622200,3.366622314453125,0.0093095340065658,-0.8565117615260184,0.260923557293415,-0.2972707748413086,0.1426260471343994,-0.2343998253345489,walking
1783087552464666400,3.376666259765625,0.0080594608802348,-0.8782458928197622,0.2206383086562156,-0.2704222500324249,0.0649613738059997,-0.2156132310628891,walking
1783087552474710300,3.386710205078125,0.162294183171913,-1.005887134153023,0.1768979511290788,-0.2320141643285751,0.0079265860840678,-0.2266445755958557,walking
1783087552484754400,3.39675439453125,0.2713148221220821,-1.11542054493092,0.2401408815056085,-0.1872489005327224,-0.0380819588899612,-0.2558312714099884,walking
1783087552494799400,3.40679931640625,0.2046011468950659,-1.0672302953228354,0.3130716776818036,-0.1458066552877426,-0.0561605617403984,-0.2856453657150268,walking
1783087552504843300,3.41684326171875,0.0670103931512683,-1.0394893248297274,0.3726110773652791,-0.1221056506037712,-0.0385191552340984,-0.3026905357837677,walking
1783087552514887400,3.426887451171875,-0.092496789650619,-1.1233094715498386,0.3723275842487812,-0.0995473489165306,0.0146423336118459,-0.3214607536792755,walking
1783087552524931000,3.43693115234375,-0.2334874149657785,-1.2858791837275028,0.2511953594833612,-0.0672702938318252,0.0882950946688652,-0.3531163930892944,walking
1783087552534976300,3.446976318359375,-0.2384767476856708,-1.2707314450867473,0.3802127845406532,-0.0330912880599498,0.1135671660304069,-0.3838803768157959,walking
1783087552545020400,3.4570205078125,-0.0341381241843104,-1.2280962723225357,0.6527209811657667,-0.0155461002141237,0.0963644608855247,-0.4138371646404266,walking
1783087552555064300,3.467064208984375,0.0154853000320494,-1.2525691809304058,0.6005880583465099,-0.0152158690616488,0.0775966346263885,-0.4351879954338074,walking
1783087552565108200,3.477108154296875,0.028606355150789,-1.235652094529569,0.4963543614119291,-0.022356703877449,0.0482865869998931,-0.444052517414093,walking
1783087552575153400,3.4871533203125,0.2326583437304943,-1.175515021213889,0.4399199420064687,-0.0361939556896686,0.0049846554175019,-0.4401081204414367,walking
1783087552585197300,3.497197265625,0.4537281026065349,-1.101568399058655,0.3496002041339874,-0.0450287908315658,-0.0382904708385467,-0.4211638271808624,walking
1783087552595241200,3.5072412109375,0.4589855116780847,-0.9873198693923652,0.1430196469247341,-0.0404260493814945,-0.0700183063745498,-0.3730314671993255,walking
1783087552605286400,3.517286376953125,0.3502653900444507,-0.9171410022728144,0.0683165803790092,-0.0167617369443178,-0.1399774402379989,-0.2913890182971954,walking
1783087552615330300,3.527330322265625,0.221503474118188,-0.9826922826569526,0.1184580371201038,0.0122214462608098,-0.2359660118818283,-0.2032495588064193,walking
1783087552625374200,3.537374267578125,0.0799834181014448,-1.0723645894713698,0.1954775639146566,0.03448037058115,-0.3336671888828277,-0.1293820738792419,walking
1783087552635418000,3.547418212890625,-0.1396931328505277,-1.190195069277659,0.1510340265542268,0.0429912991821765,-0.3907736241817474,-0.0781252607703208,walking
1783087552645463300,3.55746337890625,-0.2754354822486639,-1.2845213393777608,0.1847878275960683,0.0290997922420501,-0.4396219849586487,-0.0590764731168746,walking
1783087552655507200,3.567507080078125,-0.1211344167225062,-1.435664379264414,0.2863806546330452,-0.0119017045944929,-0.4869295656681061,-0.0813524797558784,walking
1783087552665551000,3.577551025390625,-0.0501376573488116,-1.5559487550288438,0.1783136631458997,-0.0704031214118003,-0.5415611267089844,-0.1301620304584503,walking
1783087552675595300,3.58759521484375,0.018114625622332,-1.6352636992841958,-0.0252624515503644,-0.1208916008472442,-0.5903645753860474,-0.1922083646059036,walking
1783087552685640400,3.597640380859375,0.059820993103832,-1.7121981781437992,-0.2852776618272066,-0.1452521532773971,-0.6210677027702332,-0.2470135539770126,walking
1783087552695684000,3.60768408203125,0.0124187520682811,-1.764737635937333,-0.4652683182746172,-0.1421194821596145,-0.6436752676963806,-0.2889817655086517,walking
1783087552705728300,3.617728271484375,-0.0277836405910551,-1.6845026542276142,-0.5707230814367532,-0.11891870200634,-0.6340585947036743,-0.2634314596652984,walking
1783087552715773400,3.6277734375,-0.2243694580085575,-1.184182384859398,-0.9448696978062392,-0.095081016421318,-0.5121089816093445,-0.1654127687215805,walking
1783087552725817000,3.637817138671875,-0.3282667625956237,-0.9929341290775686,-1.481377790430188,-0.0732584819197654,-0.3516592383384704,-0.0900885164737701,walking
1783087552735861200,3.647861328125,0.1461497616440057,-1.290317458435893,-1.4606874691009522,-0.0699425786733627,-0.254935622215271,-0.1231268942356109,walking
1783087552745905200,3.6579052734375,0.6524385109625757,-1.723994706660509,-1.4377157588362692,-0.0927109122276306,-0.2612144649028778,-0.2310228049755096,walking
1783087552755950300,3.667950439453125,0.9311239349178968,-1.7814789273798464,-1.52182612067461,-0.1036224141716957,-0.3707382977008819,-0.3020402491092682,walking
1783087552765994200,3.677994140625,0.968497533892095,-1.4997010903671384,-1.476808582818508,-0.0659077540040016,-0.4736315011978149,-0.3120141923427582,walking
1783087552776038100,3.6880380859375,0.5940437512695789,-1.3222940206721423,-1.6218880848824977,0.0333732925355434,-0.4752301871776581,-0.2811872959136963,walking
1783087552786082300,3.698082275390625,0.2644622528135776,-1.3483242417246102,-1.7264871079981323,0.1463072746992111,-0.4164488017559051,-0.265178918838501,walking
1783087552796127200,3.708127197265625,0.1428765851922333,-1.4150653894804417,-1.7264701568633316,0.2248681187629699,-0.3495778739452362,-0.2944443821907043,walking
1783087552806171100,3.718171142578125,0.1149099892497062,-1.3984708130322396,-1.5176169785469769,0.2589383721351623,-0.3030115962028503,-0.360942393541336,walking
1783087552816215300,3.72821533203125,0.0724909434542059,-1.1944915974278003,-1.0880810679107904,0.259709358215332,-0.2496232241392135,-0.4289078712463379,walking
1783087552826259500,3.738259521484375,-0.0681361092455685,-0.8548615831661969,-0.6906400851935148,0.2451247423887252,-0.1713883727788925,-0.4597270786762237,walking
1783087552836304100,3.74830419921875,-0.1096928391233086,-0.4270520579311996,-0.2697001534670591,0.2238684594631195,-0.0796294212341308,-0.4268889725208282,walking
1783087552846348300,3.758348388671875,0.0380820395044982,0.0642361791975796,0.069407882747054,0.1896265000104904,0.0004397965967655,-0.3332829177379608,walking
1783087552856392200,3.76839208984375,0.388947002877295,0.5843750285618007,0.32740181632936,0.1199419498443603,-0.0122586889192461,-0.1739020496606826,walking
1783087552866436400,3.778436279296875,0.912826061683148,1.0084948324333876,0.3803337805718183,0.0138724539428949,-0.1186433359980583,0.0383804440498352,walking
1783087552876481300,3.788481201171875,1.5271072759479285,1.28680769674927,0.1383078159719705,-0.0493547171354293,-0.2419783174991607,0.2834146916866302,walking
1783087552886525200,3.798525146484375,1.9680534922622144,1.5028119158640505,-0.277397137710452,-0.0219329353421926,-0.3381456434726715,0.5234279632568359,walking
1783087552896569300,3.8085693359375,2.130439372305572,1.6504732511147855,-0.5749912602752447,0.087184764444828,-0.4204719364643097,0.7261072993278503,walking
1783087552906614300,3.8186142578125,2.06233804211244,1.7148030999451875,-0.6111491998493671,0.2474203407764434,-0.4912541508674621,0.908527672290802,walking
1783087552916658200,3.828658203125,1.8450640953227877,1.8285208106704056,-0.410698523697257,0.4204253852367401,-0.5402957201004028,1.0861320495605469,walking
1783087552926702300,3.838702392578125,1.5582621465377509,2.026675630970299,-0.0706359632372856,0.5742071270942688,-0.5810277462005615,1.2547529935836792,walking
1783087552936746200,3.848746337890625,1.3307573131129145,2.19164743585363,0.5041121359318494,0.6992483735084534,-0.65728759765625,1.4271833896636963,walking
1783087552946791200,3.858791259765625,1.1290344250679016,2.330607724384963,1.056132270464301,0.7949225902557373,-0.7344169020652771,1.590230107307434,walking
1783087552956836600,3.868836669921875,0.8591253050252795,2.468082888925075,1.2747066323280334,0.8648191094398499,-0.7451569437980652,1.7283307313919067,walking
1783087552966880500,3.878880615234375,0.8225003324612975,2.5507807536169884,1.3151006020367144,0.9049274921417236,-0.7659038305282593,1.84282910823822,walking
1783087552976924700,3.888924560546875,0.5690101400390267,2.362844691123068,1.542475525471568,0.9098724722862244,-0.7765330076217651,1.9497853517532349,walking
1783087552986969600,3.898969482421875,0.3680041680917144,2.1876400999084114,1.3162830898195503,0.8739963173866272,-0.8237305283546448,2.023210048675537,walking
1783087552997013500,3.909013427734375,0.1662833258733153,1.8384411700516936,0.8108212928444146,0.8154253959655762,-0.7706958651542664,2.030160665512085,walking
1783087553007057700,3.9190576171875,-0.4550657809510827,1.3072937276780603,-0.0028974750071763,0.712053656578064,-0.5736512541770935,1.9729039669036863,walking
1783087553017101800,3.929101806640625,-1.1914672081053257,0.7288348643574863,-0.7878378921419381,0.5543817281723022,-0.267937958240509,1.837418556213379,walking
1783087553027146500,3.939146484375,-2.0746908893376586,0.0020665040757507,-1.2633856123685836,0.356232076883316,0.1064938232302665,1.6425235271453855,walking
1783087553037190700,3.949190673828125,-2.9149972198635337,-0.5730242710512131,-1.504328457906842,0.1575365662574768,0.461408257484436,1.422910451889038,walking
1783087553047234800,3.95923486328125,-3.2214626311481,-1.0443323078814892,-1.349417297658324,0.0355417393147945,0.7316684126853943,1.2018812894821167,walking
1783087553057279500,3.969279541015625,-2.225152084439993,-1.5310462228320538,-0.9947972195357084,0.0298361852765083,0.8357780575752258,0.974593222141266,walking
1783087553067323600,3.97932373046875,-0.900745309397578,-1.7636929491899906,-0.6304156258553266,0.102738156914711,0.7451633214950562,0.7041413187980652,walking
1783087553077367800,3.989367919921875,0.1063521503932774,-1.4240296171806752,-0.8669839095711708,0.1948864609003067,0.5816828012466431,0.4320487976074219,walking
1783087553089293800,4.0012939453125,0.0452932860575616,-1.406951202738285,-0.850021084332466,0.2688041031360626,0.4392097592353821,0.2441321313381195,walking
1783087553099338800,4.0113388671875,-0.0590108457647264,-1.0016081416595726,-0.9453852461129426,0.2884629070758819,0.313316285610199,0.2443689554929733,walking
1783087553109382700,4.021382568359375,0.0049584991902112,-0.5654558816235512,-0.578942628249526,0.2924722731113434,0.1683268696069717,0.3447400331497192,walking
1783087553119426800,4.0314267578125,0.1431263221696019,-0.1773766014914959,-0.0422942503720521,0.3197222352027893,-0.0038107275031507,0.5021876692771912,walking
1783087553129470500,4.041470458984375,0.3057157619610429,-0.0111589612655341,0.5833844100892543,0.3888071477413177,-0.1797406822443008,0.6683923602104187,walking
1783087553139515600,4.051515625,0.4331256056912243,-0.0978602163799107,1.149461127024889,0.4817527830600738,-0.3425674140453338,0.8104102611541748,walking
1783087553149559800,4.061559814453125,0.4990555831946432,-0.2391652414064854,1.4260159686923026,0.5594422817230225,-0.4847463965415954,0.9303246736526488,walking
1783087553159603700,4.071603759765625,0.6047919397771359,-0.2958787700142711,1.4692641587883233,0.6063336133956909,-0.6106787919998169,1.0461716651916504,walking
1783087553169647600,4.081647705078125,0.8299293134182691,-0.3133288673132657,1.3530015858858824,0.6289926171302795,-0.6690936088562012,1.1506247520446775,walking
1783087553179692800,4.09169287109375,0.8804407725155353,-0.2879469541016966,1.1416191813528538,0.6280511617660522,-0.6812336444854736,1.2621814012527466,walking
1783087553189736700,4.10173681640625,0.7353349669665098,-0.100765290171653,1.1416893239796162,0.6239374279975891,-0.6942590475082397,1.3720637559890747,walking
1783087553199780600,4.111780517578125,0.7089967028781772,-0.1244384997691959,1.2549807721167805,0.6181661486625671,-0.7085548043251038,1.464321494102478,walking
1783087553209825800,4.12182568359375,0.6706517746537923,-0.2772082640748471,1.2548165214657785,0.6204851269721985,-0.7040143609046936,1.540113091468811,walking
1783087553219869700,4.13186962890625,0.4753595041781663,-0.3426791361665353,1.010902551162243,0.6282200217247009,-0.6408559083938599,1.6319586038589478,walking
1783087553229913600,4.14191357421875,0.1382072782069444,-0.2250083039013668,0.7279419341057538,0.645626425743103,-0.547076404094696,1.7358496189117432,walking
1783087553239957500,4.15195751953125,-0.1117275598213076,-0.1393986068833619,0.608111439588666,0.6582689881324768,-0.3981130719184875,1.8038784265518188,walking
1783087553250002700,4.162002685546875,-0.170705818490684,-0.2185884999869391,0.5631383253961801,0.6347575783729553,-0.2360681146383285,1.8296903371810913,walking
1783087553260046800,4.172046875,-0.4764993218630552,-0.2851324446702376,0.7768395282655954,0.5563541650772095,-0.1156253218650817,1.8752820491790771,walking
1783087553270090500,4.182090576171875,-0.9713160984441638,-0.3030903088282793,1.1317243948042393,0.4336794018745422,-0.032148540019989,1.919117093086243,walking
1783087553280134700,4.192134765625,-0.9172054458111524,-0.6562082387596369,1.4074848712235688,0.3031899929046631,0.0029805437661707,1.859032392501831,walking
1783087553290179800,4.202179931640625,-0.4217436493247747,-1.3771701047196985,1.5223130274087189,0.2100169062614441,-0.0709511712193489,1.7007858753204346,walking
1783087553300223500,4.212223388671875,-0.1524301570877432,-2.0811387503027916,1.4491384856045246,0.1821373403072357,-0.1879960298538208,1.52554190158844,walking
1783087553310267600,4.222267578125,-0.3158203918680548,-2.442760085489601,1.101263790088892,0.2110739201307296,-0.2774391174316406,1.3739629983901978,walking
1783087553320311800,4.232311767578125,-0.4651978833869099,-2.5782597121730446,0.832331698384881,0.2531605660915375,-0.3361583948135376,1.2353754043579102,walking
1783087553330356500,4.2423564453125,-0.404075890687108,-2.642963362751901,0.7218412791430949,0.3122823238372803,-0.3591188192367553,1.087035894393921,walking
1783087553340400600,4.252400634765625,-0.0783978294104337,-2.5500825422197577,0.3856745570778846,0.4013203382492065,-0.3331900238990783,0.9411935210227966,walking
1783087553350444800,4.26244482421875,0.1977659671127796,-2.1420298568561673,-0.0911433292150497,0.5043415427207947,-0.2722555696964264,0.854116678237915,walking
1783087553360488700,4.27248876953125,0.0625318594977259,-1.6356458304695785,-0.5343821865111589,0.5858298540115356,-0.1953760534524917,0.8787736296653748,walking
1783087553370533600,4.28253369140625,-0.3159332045927643,-1.2565328238643705,-0.812711636635661,0.6224836111068726,-0.1329972743988037,0.9975957870483398,walking
1783087553380577500,4.29257763671875,-0.5922881397739053,-1.0660058680944144,-0.9121434862464666,0.6259598135948181,-0.1277463138103485,1.1700139045715332,walking
1783087553390621700,4.30262158203125,-0.7412728325828909,-1.2451656266756357,-0.8629442787915468,0.6374055743217468,-0.1286256909370422,1.3048542737960815,walking
1783087553400666600,4.31266650390625,-0.5863309849351644,-1.7041526727236809,-0.9308563700228928,0.6741324067115784,-0.1410112529993057,1.3754825592041016,walking
1783087553410710500,4.32271044921875,-0.2709422624826431,-1.7518296390473842,-0.966748352137208,0.7140722870826721,-0.1125653013586998,1.4595853090286257,walking
1783087553420754700,4.332754638671875,0.0479500841766595,-1.0219175739124418,-1.1477028851807116,0.7540556788444519,-0.1106297150254249,1.5605987310409546,walking
1783087553430798800,4.342798828125,0.6490095594272017,-0.4880939711321145,-0.8005863145560026,0.7868167757987976,-0.1865543127059936,1.6725434064865112,walking
1783087553440843500,4.352843505859375,0.9259192058816552,-0.0676498966312035,-0.4216010259836912,0.8013863563537598,-0.3193165361881256,1.831813097000122,walking
1783087553451516700,4.3635166015625,0.6332742301568388,0.4536266149934381,-0.1638414856791496,0.8173255324363708,-0.4886296689510345,2.096480369567871,walking
1783087553461560800,4.373560791015625,-0.2452595396935939,1.1400880262628197,-0.0494569816082716,0.8367767333984375,-0.5248159170150757,2.51031231880188,walking
1783087553471605800,4.383605712890625,-1.4878124996528028,2.063468653577566,-0.910827727472782,0.8037405610084534,-0.3448173105716705,2.982168674468994,walking
1783087553481649700,4.393649658203125,-1.7289046905338763,2.2240828477732837,-2.299052602431178,0.5961295962333679,0.0524469539523124,3.2788000106811523,walking
1783087553491693800,4.40369384765625,-1.557690337999165,1.4763389194801448,-3.808266494292021,0.2251058369874954,0.5472450256347656,3.3093652725219727,walking
1783087553501737500,4.413737548828125,-0.3701648532569408,0.9662668522305786,-4.397750974822044,-0.1838427782058715,0.8489223122596741,3.215015411376953,walking
1783087553511782700,4.42378271484375,1.1125564607366918,0.8416519729811698,-3.7071120586723088,-0.4535296857357025,0.8299638628959656,3.110551118850708,walking
1783087553521826800,4.433826904296875,1.7082926951378583,0.6127648183524608,-2.339524313551187,-0.4511813223361969,0.5040568709373474,2.954319953918457,walking
1783087553531870700,4.44387060546875,2.0481994805142283,0.2564805333446711,-1.0173995119661092,-0.1340562403202057,0.1268794685602188,2.784801721572876,walking
1783087553541914600,4.45391455078125,2.248540851072967,0.4765501022022217,-0.3373065397500991,0.3600248396396637,-0.1565748900175094,2.6309893131256104,walking
1783087553551959800,4.463959716796875,2.211400914724171,0.17668832696639,-0.0598281534969806,0.8008017539978027,-0.3564313650131225,2.3952181339263916,walking
1783087553562003700,4.474003662109375,2.1665637018710373,-0.6182661191824823,0.1788145984053611,1.0297346115112305,-0.5275434851646423,2.0971055030822754,walking
1783087553572047600,4.484047607421875,2.245599829185009,-0.897854483326897,0.5349485882222652,1.03425395488739,-0.6731386780738831,1.8469982147216797,walking
1783087553582092800,4.4940927734375,2.028398801501095,-0.7741448092889041,0.6655570818632841,0.9042404890060424,-0.7257773876190186,1.669372320175171,walking
1783087553592136700,4.50413671875,1.5242366889476775,-0.8714493645474314,0.3281692935705185,0.722428023815155,-0.6365426182746887,1.5054584741592407,walking
1783087553602180600,4.5141806640625,1.467793793974817,-1.052235116895288,-0.2760422159701585,0.5283903479576111,-0.4679129123687744,1.4200615882873535,walking
1783087553612224500,4.524224609375,1.6596788863554597,-0.5668422944806516,-1.0077852959245444,0.3560613393783569,-0.2615315318107605,1.4894753694534302,walking
1783087553622269700,4.534269775390625,1.8782777981385588,0.3377800755459815,-1.7620833220362662,0.2036217302083969,-0.0539029575884342,1.688084363937378,walking
1783087553632313900,4.54431396484375,1.532510888557136,0.6021619565997273,-2.1908090853333473,0.1151471585035324,0.1476200073957443,1.8924436569213867,walking
1783087553642357500,4.554357421875,1.3787445144295691,-0.0900945508144795,-2.2009669067323205,0.1085640862584114,0.3437793850898742,2.022095203399658,walking
1783087553652401700,4.564401611328125,1.679965887580812,-0.9707057114608584,-1.8615391370445489,0.1827980875968933,0.3889447748661041,2.063014030456543,walking
1783087553662446800,4.57444677734375,1.957409787042439,-1.370523798573017,-0.9159516463577748,0.3103933334350586,0.2989128828048706,2.0519585609436035,walking
1783087553672490500,4.584490478515625,2.4066356097936628,-1.3268076987043025,0.0369897142231464,0.431850790977478,0.137324258685112,1.9940091371536257,walking
1783087553682534700,4.59453466796875,2.9987279347345233,-1.1904329696867617,0.644103959468007,0.5127360224723816,-0.024452120065689,1.9372334480285645,walking
1783087553692578800,4.604578857421875,3.0260929115220905,-0.9735042561382056,0.8136766822755336,0.5420541167259216,-0.1420511901378631,1.9273276329040527,walking
1783087553702623500,4.61462353515625,2.633970493479073,-0.8670777253344655,1.010262499693036,0.5319170951843262,-0.2557338178157806,1.9582180976867676,walking
1783087553712667600,4.624667724609375,2.66364783886224,-0.968626786294952,1.2002362054944038,0.505517303943634,-0.3720469772815704,2.0101194381713867,walking
1783087553722711600,4.634711669921875,2.8636110237583514,-0.9717993519164622,1.1746668799519535,0.4901141822338104,-0.4736031889915466,2.063875436782837,walking
1783087553732756700,4.6447568359375,2.932522355160117,-0.8756808646373451,0.9408779978215692,0.4950035512447357,-0.518791675567627,2.1120808124542236,walking
1783087553742800600,4.654800537109375,2.9851348781898617,-0.8109579979013651,0.5399082564562558,0.5254115462303162,-0.4946844279766083,2.1735007762908936,walking
1783087553752844500,4.664844482421875,2.60734376783818,-0.7498676424488425,-0.0152735569775104,0.5637392401695251,-0.3887166976928711,2.2535698413848877,walking
1783087553762888700,4.674888671875,2.0719699399411677,-0.7682868039757013,-0.6064578271627425,0.5858138799667358,-0.2307811230421066,2.3170790672302246,walking
1783087553772933600,4.68493359375,1.723646039353311,-0.9117193425502628,-0.8881231437116861,0.5840260982513428,-0.071398377418518,2.314640522003174,walking
1783087553782977500,4.6949775390625,1.55020261259228,-1.1903955602858214,-0.8050415403991937,0.5605540871620178,0.0516844056546688,2.2413299083709717,walking
1783087553793021700,4.705021728515625,1.6626146475464103,-1.4276381630666553,-0.4055804500311613,0.5239897966384888,0.1326194405555725,2.1581568717956543,walking
1783087553803065900,4.71506591796875,1.6064663516059516,-1.3851381609894335,0.0941921953916549,0.4837440848350525,0.178095057606697,2.099232912063598,walking
1783087553813110500,4.725110595703125,1.8144713886603712,-1.2657589173711836,0.3549737138658762,0.4598736763000488,0.2069008350372314,2.064846992492676,walking
1783087553823154700,4.73515478515625,2.041590876029432,-1.0225127633266151,0.4331593618303537,0.4529880881309509,0.2502949237823486,2.067145824432373,walking
1783087553833198800,4.74519873046875,1.994767457795143,-0.5934324144382029,0.3207154704332352,0.4430969655513763,0.3201799690723419,2.089029312133789,walking
1783087553843243500,4.755243408203125,2.1961919474154707,-0.3941409182585775,0.1407154616355896,0.4000121057033539,0.3905747830867767,2.110806703567505,walking
1783087553853287700,4.76528759765625,2.194289620925486,-0.583508036468923,-0.0979991864591837,0.3233577311038971,0.4401179850101471,2.1253011226654053,walking
1783087553863331600,4.77533154296875,2.1350905591122804,-0.6554435379974544,0.0522059880554676,0.2516209781169891,0.3631843030452728,2.1774349212646484,walking
1783087553873375700,4.785375732421875,2.176441537284851,-0.5901553655289113,0.2331967614561319,0.2265450209379196,0.2455623894929886,2.269552707672119,walking
1783087553883420700,4.795420654296875,2.4445552983433005,-0.4231806963905692,0.1578676719665527,0.2659890651702881,0.1046247035264968,2.334085702896118,walking
1783087553893464600,4.805464599609375,2.445396863733977,-0.3413317036129534,0.0343424145847559,0.3424410223960876,-0.0091848205775022,2.3727259635925293,walking
1783087553903508700,4.8155087890625,2.3967519291609523,-0.4358259506911039,-0.3519336155176162,0.4296126961708069,-0.0405006669461727,2.3986711502075195,walking
1783087553913552600,4.825552734375,1.9579165675207972,-0.3659427055172622,-0.6885813990980386,0.484700858592987,-0.0232673324644565,2.4293136596679688,walking
1783087553923597600,4.83559765625,1.7029348213665183,-0.3475394722118973,-0.7220511225014925,0.4833295941352844,-0.0156048852950334,2.441255807876587,walking
1783087553933641700,4.845641845703125,1.8496530305482448,-0.5146040115907788,-0.5000573075830936,0.4327267110347748,-0.0250484645366668,2.4162752628326416,walking
1783087553943686000,4.855685791015625,1.9778705373995005,-0.6225171276904642,-0.3699135088443755,0.3716346025466919,-0.0229120776057243,2.3451521396636963,walking
1783087553953729500,4.8657294921875,1.6192130204543471,-0.6742249569654465,-0.4712678509503603,0.3265196979045868,0.0179363321512937,2.2957053184509277,walking
1783087553963773000,4.87577294921875,0.9900491482257844,-0.6222944248504937,-0.4836193830013275,0.3207824528217315,0.0011155414395034,2.2064967155456543,walking
1783087553973817000,4.885817138671875,1.1480438075728714,-1.0895166536718606,-0.0662824442028999,0.3541279137134552,-0.0688616782426834,2.0516562461853027,walking
1783087553983861000,4.895861083984375,1.185084667461365,-1.2958461587294936,0.0787660782009363,0.4082086980342865,-0.1234431639313697,1.8966275453567505,walking
1783087553993906000,4.905906005859375,1.2203729845941067,-1.2826077608413993,-0.089225512894988,0.4598312675952911,-0.1198545396327972,1.753235101699829,walking
1783087554003950000,4.9159501953125,1.3129261806070804,-1.368137634088844,-0.3476905711203813,0.5013129115104675,-0.0473350659012794,1.615434169769287,walking
1783087554013994000,4.925993896484375,1.203595598924905,-1.3618147146776318,-0.598715250211954,0.5022531747817993,0.074366882443428,1.5197283029556274,walking
1783087554024038100,4.9360380859375,0.6216539349898695,-1.203546060694754,-0.6978396413087844,0.4580204784870147,0.1668872386217117,1.5186768770217896,walking
1783087554034083000,4.9460830078125,0.6373595997743308,-0.914030761297792,-0.3617524142205714,0.389415979385376,0.1303395181894302,1.5185589790344238,walking
1783087554044127000,4.956126953125,1.4287421787858008,-1.115600796868652,0.1016869350612163,0.3383086025714874,0.0678774714469909,1.45054292678833,walking
1783087554054171100,4.966171142578125,1.340434803649038,-1.4173402025446296,-0.2990618570297956,0.3343807160854339,0.0743497535586357,1.3869870901107788,walking
1783087554064215000,4.976215087890625,1.1134393810510634,-1.4474628074772655,-0.6886170549333095,0.355374664068222,0.0971797034144401,1.3777844905853271,walking
1783087554074260000,4.986260009765625,1.0758045007921757,-1.441128636019677,-0.7564788772821426,0.3756522536277771,0.1099394410848617,1.3835045099258425,walking
1783087554084304100,4.99630419921875,1.047827675716579,-1.4928990091368557,-0.7605255223244428,0.3725981414318084,0.0983456373214721,1.395273208618164,walking
1783087554094348000,5.00634814453125,1.1706814635775982,-1.5152172239288686,-0.6120248136401176,0.3552258610725403,0.0551767647266387,1.4121599197387695,walking
1783087554104392000,5.016391845703125,1.3693192450888454,-1.4812940576694904,-0.4233037382483482,0.3367861211299896,-0.0088205961510539,1.4470503330230713,walking
1783087554114437000,5.02643701171875,1.545062327094376,-1.3385320387676358,-0.2869669300884008,0.3361718356609344,-0.0879738926887512,1.5194737911224363,walking
1783087554124481000,5.03648095703125,1.7535034174785018,-1.1264004233025011,-0.1641395918428898,0.3672658205032348,-0.1535728722810745,1.597853183746338,walking
1783087554134525200,5.046525146484375,1.9235960725069048,-0.8636873522438109,-0.1266699851483106,0.4140650331974029,-0.1774537116289138,1.674717664718628,walking
1783087554144570000,5.056570068359375,1.903562753781676,-0.5687812997192144,-0.0849549959689378,0.4470637142658233,-0.1713199168443679,1.7587970495224,walking
1783087554154614000,5.066614013671875,1.7458168084986507,-0.3924629020437598,0.0278530525654554,0.4343430995941162,-0.1356444060802459,1.8547499179840088,walking
1783087554164658200,5.076658203125,1.687540560618788,-0.2845850033879279,0.0973912836939096,0.3663480877876282,-0.0869655460119247,1.9425106048583984,walking
1783087554174702000,5.0867021484375,1.7614584681361911,-0.1978377171747386,0.0740823042988777,0.2830315828323364,-0.021984651684761,2.040468692779541,walking
1783087554184747000,5.0967470703125,1.8472358864039184,-0.1295220135785639,0.0177677118808031,0.2234348356723785,0.0499521233141422,2.1299660205841064,walking
1783087554194791200,5.106791259765625,1.8930884137794377,-0.0877830590017139,-0.0232557879030704,0.1978382617235183,0.1030776277184486,2.20485520362854,walking
1783087554204834800,5.116834716796875,1.911593353893608,0.0801568019069731,-0.0500713141143321,0.2146990001201629,0.1388974040746688,2.2738540172576904,walking
1783087554214879000,5.12687890625,1.873829586558044,0.3372245605550706,-0.1387035372912883,0.256050705909729,0.1703634560108184,2.344555139541626,walking
1783087554224924200,5.136924072265625,1.6777913200207053,0.5629468944773077,-0.1791138736128807,0.2923285663127899,0.1806094348430633,2.4154224395751953,walking
1783087554234968000,5.146968017578125,1.4320321602419015,0.655310705398023,-0.1653267558008432,0.3056329190731048,0.1854260265827179,2.4628162384033203,walking
1783087554245012000,5.157011962890625,1.300876115720719,0.5217581211291253,-0.2708691972464322,0.2985491752624511,0.2231659442186355,2.460631847381592,walking
1783087554255057200,5.16705712890625,1.0163235532976689,0.1561786959663033,-0.5918132157385348,0.2699205577373504,0.2676908671855926,2.396450996398926,walking
1783087554265101000,5.17710107421875,0.7255658526241779,-0.3266461756564676,-0.8515209675014018,0.2107840031385421,0.2936143279075622,2.2696409225463867,walking
1783087554275145000,5.18714501953125,0.4974447139319032,-0.7676305320240556,-0.9859551569104196,0.1447521150112152,0.2616761326789856,2.1176044940948486,walking
1783087554285189000,5.197189208984375,0.5389822276525199,-1.023829398883134,-0.9654062898784876,0.1230556070804596,0.1844053119421005,1.9669848680496216,walking
1783087554295234000,5.207234130859375,0.7212142332859337,-1.109355911129713,-0.8742658832728862,0.1599245965480804,0.1162815168499946,1.7937700748443604,walking
1783087554305278000,5.21727783203125,0.6737412651017308,-1.333248983798176,-0.815899034500122,0.238859623670578,0.0983025208115577,1.5890138149261477,walking
1783087554315322000,5.227322021484375,0.3388637060642242,-1.5407678447708486,-0.7727963903546333,0.3240616023540497,0.1404803693294525,1.4001964330673218,walking
1783087554325366000,5.237365966796875,-0.0308323606371879,-1.4325897941246628,-0.6737059015274047,0.3781261742115021,0.228550300002098,1.258700251579285,walking
1783087554335411000,5.247410888671875,-0.2555192870970815,-1.116831799968332,-0.3933662806242704,0.3808224201202392,0.3255758285522461,1.1470286846160889,walking
1783087554345454800,5.257454833984375,-0.1910483492955565,-0.8572095345318317,-0.1501233414500951,0.3346237540245056,0.4223569929599762,1.0440930128097534,walking
1783087554355499000,5.2674990234375,0.1098917226962745,-0.7353403737939894,-0.1245306350320577,0.2727649211883545,0.4657558500766754,0.9548520445823668,walking
1783087554365544200,5.277544189453125,0.5383426876399666,-0.6975055870488286,0.0972504139184951,0.2261654585599899,0.4119517505168915,0.8764387369155884,walking
1783087554375587800,5.287587890625,0.9968929497059434,-0.717605468204245,0.3047492550164461,0.2015842795372009,0.3052972853183746,0.82570481300354,walking
1783087554385632000,5.297632080078125,1.2155641960728911,-0.6195610543638468,0.3105453740745783,0.1979754269123077,0.1658533960580825,0.8497318625450134,walking
1783087554395676200,5.30767626953125,1.4333432428404689,-0.3463950514171272,0.2668330735981464,0.2190274000167846,-0.0071087214164435,0.9149565696716307,walking
1783087554405720800,5.317720947265625,1.7599179606959223,-0.1118865497753024,0.2447247021645307,0.2701840698719024,-0.1750692278146743,0.9845918416976928,walking
1783087554415765000,5.327764892578125,1.719417315742373,0.2266767851028591,0.3277940305173397,0.3369936943054199,-0.3469054400920868,1.09606671333313,walking
1783087554425809200,5.33780908203125,1.1841115115802734,0.6242191823679953,0.5498936438977718,0.3875029385089874,-0.4646541774272918,1.244600534439087,walking
1783087554435853000,5.34785302734375,0.4596878877937793,0.7666627099052071,0.6901040786206721,0.4102756977081299,-0.4957264363765716,1.3874298334121704,walking
1783087554445898000,5.35789794921875,-0.2082525820747017,0.8507726333521306,0.577898087632656,0.421280950307846,-0.4725795686244964,1.516499161720276,walking
1783087554455942100,5.367942138671875,-0.7292733288399875,1.121562847078219,0.4355705146253109,0.4569557607173919,-0.410285085439682,1.643561601638794,walking
1783087554465986000,5.377986083984375,-1.0699117164265364,1.3821731737039982,0.3096925566375255,0.5162907242774963,-0.3158280849456787,1.7712122201919556,walking
1783087554476030200,5.3880302734375,-1.3907714907012878,1.442074538567662,0.1245885026991367,0.551723301410675,-0.2001590877771377,1.8514031171798704,walking
1783087554486075100,5.3980751953125,-1.533026582994312,1.1884360967811196,-0.2006605195105075,0.5326635837554932,-0.0389981679618358,1.8554903268814087,walking
1783087554496119000,5.408119140625,-1.6517206208273767,0.8207230205904692,-0.7136334227681159,0.4655653238296509,0.1442005634307861,1.8000496625900269,walking
1783087554506163200,5.4181630859375,-1.563326298059523,0.5536636639557778,-1.0434089824914932,0.3826821446418762,0.2774776518344879,1.7057713270187378,walking
1783087554516207900,5.428207763671875,-1.1488357616681606,0.4444214181441813,-1.027509987092018,0.3064007759094238,0.3434325456619262,1.568095564842224,walking
1783087554526252000,5.438251953125,-0.8305242836367338,0.4078849275812506,-0.8226847491174936,0.2534171640872955,0.3505993783473968,1.431468486785889,walking
1783087554536296200,5.448296142578125,-0.7531475409023464,0.4347608787428587,-0.4926040689677,0.2198094427585601,0.2760039269924164,1.3093140125274658,walking
1783087554546340000,5.458340087890625,-0.7517462958022951,0.4261113430149853,-0.0003869534909725,0.1954724043607711,0.1550141125917434,1.1954742670059204,walking
1783087554556385000,5.468385009765625,-0.947695276620984,0.2728181393571198,0.2593985396832227,0.1733509600162506,0.0322158262133598,1.0753178596496582,walking
1783087554566429200,5.47842919921875,-1.0431938784360886,-0.0844835059996694,0.3881272109270096,0.1640251129865646,-0.1015100106596946,0.940707266330719,walking
1783087554576473000,5.48847314453125,-0.8138368412733078,-0.5570668965280056,0.6313163740873337,0.1751929223537445,-0.2394878268241882,0.7929748892784119,walking
1783087554586517000,5.49851708984375,-0.5913098327936605,-0.8327845567189156,0.7695142999440431,0.1928262412548065,-0.3700743317604065,0.6407192945480347,walking
1783087554596562200,5.508562255859375,-0.3595558540243655,-0.8502011170744895,0.6402765101343393,0.1926468461751938,-0.4733721613883972,0.5018681883811951,walking
1783087554606606000,5.518606201171875,-0.0722553811326622,-0.7304517249695957,0.1912093850761652,0.1775733530521392,-0.4902736246585846,0.4092200100421905,walking
1783087554616650000,5.52864990234375,0.2354334344670176,-0.5036312205471098,-0.3372702993929386,0.1540698111057281,-0.4906668365001678,0.3631839752197265,walking
1783087554626695200,5.538695068359375,0.5054226340085268,-0.341031113231182,-0.5457727645754814,0.1234362721443176,-0.5204902291297913,0.3551172614097595,walking
1783087554636739000,5.548739013671875,0.7407108147859572,-0.3191972478900104,-0.5214058005601168,0.1037299260497093,-0.5573440790176392,0.3676252365112304,walking
1783087554646783200,5.558783203125,0.7638805318407714,-0.3816343417763709,-0.5667565158933401,0.1125050410628318,-0.5838233828544617,0.4130496978759765,walking
1783087554656827000,5.568826904296875,0.7632027787096798,-0.3440214541535824,-0.4483867415785789,0.15934918820858,-0.6185729503631592,0.4837225973606109,walking
1783087554666872000,5.5788720703125,0.8734438993655145,-0.2447123541396111,-0.1038853218883276,0.242974579334259,-0.6236228346824646,0.5649559497833252,walking
1783087554676916200,5.588916259765625,0.8109804289288819,-0.3718586515627801,0.2296855384647846,0.3328393697738647,-0.5921912789344788,0.6337635517120361,walking
1783087554686959900,5.5989599609375,0.4835968058433383,-0.5996824512762948,0.4093383412599563,0.4043827950954437,-0.5482696294784546,0.6774244904518127,walking
1783087554697005000,5.609005126953125,0.1288767744775861,-0.8247051490291952,0.6724860043436288,0.4390668272972107,-0.4951532781124115,0.6989818215370178,walking
1783087554707049200,5.61904931640625,-0.1047034333381801,-1.0533084452152253,0.9286486308455468,0.4258919060230255,-0.4632779061794281,0.7075238823890686,walking
1783087554717092900,5.6290927734375,-0.2250221497636288,-1.1297881660446525,1.1950146714538334,0.3613862097263336,-0.4442417621612549,0.7069758176803589,walking
1783087554727137000,5.639136962890625,-0.1629226172685623,-1.0470793415673076,1.3700526739299297,0.2396856099367141,-0.4251370429992676,0.6754623651504517,walking
1783087554737182200,5.64918212890625,0.1652463840410113,-1.0389920428320765,1.475534909620881,0.0822351947426796,-0.4244614839553833,0.6028246879577637,walking
1783087554747226000,5.65922607421875,0.405905444201827,-1.0407422475002706,1.453242413792014,-0.0940026864409446,-0.43983855843544,0.5398886203765869,walking
1783087554757270000,5.66927001953125,0.2722992300495505,-0.8685741744372993,1.1836556575715542,-0.2426234632730484,-0.4442096352577209,0.5069999098777771,walking
1783087554767314000,5.67931396484375,0.0806958772197365,-0.8375987520676106,0.8757973306238651,-0.2949284613132477,-0.4540516138076782,0.4747394025325775,walking
1783087554777359000,5.689359130859375,0.0313901406504213,-1.047468779276311,0.7914455612450838,-0.2172597348690033,-0.4417255222797394,0.4224629700183868,walking
1783087554787403000,5.699403076171875,-0.1232465865708887,-1.2976260278835892,0.7017752271920442,-0.0646829828619957,-0.4270040988922119,0.3444632291793823,walking
1783087554797447000,5.709447021484375,-0.2555509243443608,-1.4529992526859044,0.8286404426515102,0.0838784202933311,-0.4132270216941833,0.2484063059091568,walking
1783087554807492000,5.7194921875,-0.3985902988828718,-1.497457987615466,1.03004272044003,0.1690921187400818,-0.3945638537406921,0.1669687032699585,walking
1783087554817536000,5.729535888671875,-0.4129787435889244,-1.431252115780115,1.2382850733816624,0.1733127385377884,-0.377374917268753,0.0974127650260925,walking
1783087554827580000,5.739579833984375,-0.185193193526566,-1.3404849264010783,1.4365128127872944,0.1096560060977935,-0.3720611035823822,0.0345073007047176,walking
1783087554837624000,5.7496240234375,0.1870132485605776,-1.350614983010292,1.6919231596171855,0.0111038656905293,-0.3894456923007965,-0.016879454255104,walking
1783087554847669200,5.759669189453125,0.3443818849638104,-1.337252958742529,1.647939640983939,-0.0847672671079635,-0.433113545179367,-0.035384964197874,walking
1783087554857713000,5.769712890625,0.2373246550410986,-1.1857072563391178,1.4182897583544254,-0.152677521109581,-0.4532139003276825,-0.0426946692168712,walking
1783087554867757000,5.779757080078125,0.0614224369511008,-1.0018507913090289,0.8277841180831194,-0.2246345281600952,-0.3531219065189361,-0.0311852879822254,walking
1783087554877802200,5.78980224609375,-0.040682285130769,-0.8562018918592482,-0.0230307469755411,-0.2286806106567382,-0.3653632700443268,0.0030664382502436,walking
1783087554887846000,5.799845947265625,-0.2810249728187918,-1.0083812159910797,0.4865039985269307,-0.1448174118995666,-0.2656414806842804,0.0912325158715248,walking
1783087554897890000,5.80989013671875,-0.7475175721913576,-1.1960582622226328,-0.1211211188495159,-0.0897462591528892,-0.1541054546833038,0.1155874356627464,walking
1783087554907934000,5.819933837890625,-0.7824313569232821,-1.527891412062943,-0.5671756180882453,-0.0597851648926734,-0.0978459119796752,0.1026817560195922,walking
1783087554917979000,5.829978759765625,-0.7312834996186196,-1.6122734304495154,-0.5670218888312578,-0.0559418462216854,-0.0348615609109401,0.1069263815879821,walking
1783087554928023000,5.84002294921875,-0.641762510908395,-1.6414859347999096,-0.6838526170104742,-0.0549607351422309,-0.045240432024002,0.1242643594741821,walking
1783087554938067000,5.85006689453125,-0.632636955166608,-1.7436439945042133,-0.8166156583368778,-0.0317725352942943,-0.0836417376995086,0.1292233616113662,walking
1783087554948112100,5.860112060546875,-0.6010463235080242,-1.9787940819852052,-0.8380904080420732,0.0213918816298246,-0.1269308924674987,0.1097857430577278,walking
1783087554958156300,5.87015625,-0.7458487621963024,-2.1879718160808084,-0.6311854411840438,0.0683298483490943,-0.1656351387500763,0.0656521916389465,walking
1783087554968200200,5.8802001953125,-1.0289844435587523,-2.251233451157808,-0.489248913320899,0.0858912616968154,-0.2007257491350174,0.0063252178952097,walking
1783087554978244400,5.890244384765625,-1.1957577449060977,-2.33830733897686,-0.1926455553591251,0.0489720404148101,-0.2360577881336212,-0.0589707978069782,walking
1783087554988289300,5.900289306640625,-1.4358658931858836,-2.3078207230374215,-0.1480675779640674,-0.0273269936442375,-0.2409705221652984,-0.1065319254994392,walking
1783087554998333200,5.910333251953125,-2.0569059340611098,-2.0431635321736334,-0.5171808763414621,-0.0903556644916534,-0.0932358652353286,-0.0368687026202678,walking
1783087555008377300,5.92037744140625,-3.1964199598282574,-1.189960895195603,-1.704104595798254,-0.0738059803843498,0.2512597441673279,0.2004099041223526,walking
1783087555018422300,5.93042236328125,-2.70586288651824,0.1272273267701268,-2.957028435385227,-0.0346349328756332,0.5840226411819458,0.4205034673213959,walking
1783087555028466200,5.940466064453125,-0.7321078216135501,0.8367021685540675,-3.514363627460599,-0.1300767660140991,0.8704988956451416,0.5465663075447083,walking
1783087555038510300,5.95051025390625,0.6554249794274568,1.4827823965311049,-3.781920923680067,-0.2723664939403534,1.0690137147903442,0.6059096455574036,walking
1783087555048554200,5.96055419921875,1.4498128777347503,2.3268737985536454,-3.3893267964720724,-0.340762048959732,1.1626733541488647,0.7278680205345154,walking
1783087555058599200,5.97059912109375,1.3132966213546693,2.888323732471466,-2.6997721684277054,-0.3057747483253479,1.106271505355835,0.9140965938568116,walking
1783087555068643300,5.980643310546875,0.6221193605445325,2.557085114458203,-1.6319091281592846,-0.173076644539833,0.9754262566566468,1.0430177450180054,walking
1783087555078687200,5.990687255859375,0.0387292513668537,1.8287310924202205,-0.5163035089850425,-0.0072622178122401,0.81819748878479,1.051541090011597,walking
1783087555088732200,6.000732177734375,-0.3129692402206361,0.7176223462738096,0.254875509300828,0.1127978786826133,0.6617322564125061,0.9254308938980104,walking
1783087555098776300,6.0107763671875,-1.0349857298001646,-0.4806191052068024,0.6120715753912925,0.1546135544776916,0.5173054337501526,0.7585390210151672,walking
1783087555108820200,6.0208203125,-1.9971042301796376,-0.9635168228700756,0.7482932327389716,0.1436921954154968,0.3772465288639068,0.5610477924346924,walking
1783087555118864400,6.030864501953125,-2.4175514099530875,-1.2570301058620217,0.9179255767792462,0.1066983565688133,0.2387680560350418,0.3333306908607483,walking
1783087555128909300,6.040909423828125,-2.5408266380965707,-1.2132803959846497,0.8198416346460581,0.0528183430433273,0.1648938357830047,0.1367603540420532,walking
1783087555138953200,6.050953125,-2.348449378284812,-0.836177267897129,0.5755757821649312,0.0222413446754217,0.0586774908006191,-0.0479132123291492,walking
1783087555148997400,6.060997314453125,-1.0303527362372726,-0.4254144467920064,0.7804553806751966,0.0061830170452594,-0.0370684787631034,-0.161478653550148,walking
1783087555159042300,6.071042236328125,-0.5106868381470442,0.3718140817686915,0.2063338889718055,-0.0083849942311644,-0.0442655049264431,-0.2079578638076782,walking
1783087555169086200,6.081086181640625,-0.3446285532012582,0.8682537833765148,-0.3018283991336822,-0.0179103221744298,-0.0218536742031574,-0.2298429161310196,walking
1783087555179130400,6.09113037109375,0.3649283408429473,0.7842283233426511,0.0314753347158432,-0.0496817901730537,-0.0270900074392557,-0.2376552522182464,walking
1783087555189174300,6.10117431640625,0.945906931899488,0.6938554670434445,0.243646259278059,-0.1068587899208068,-0.0162155199795961,-0.2163092195987701,walking
1783087555199219200,6.11121923828125,1.1840893728137016,0.6760255035813898,0.1668412520170211,-0.1768446862697601,0.0133959148079156,-0.1883584409952163,walking
1783087555209263400,6.121263427734375,1.4935086654677987,0.6075880733016878,0.2384399228066205,-0.2566609382629394,0.0347848273813724,-0.1323974430561065,walking
1783087555219307300,6.131307373046875,1.7903548922747372,0.7861819416284561,0.2956879966825246,-0.3315281569957733,0.0155038312077522,-0.0233607552945613,walking
1783087555229352200,6.141352294921875,2.0976729748658833,1.1068925897561013,0.3114794400542974,-0.3857096135616302,-0.02895338088274,0.1297281235456466,walking
1783087555239396400,6.151396240234375,2.165569284006208,1.3215680444851516,0.2451934887200594,-0.4248051345348358,-0.0471426434814929,0.3315019011497497,walking
1783087555249440300,6.161440185546875,1.832386838448793,1.4484342828579246,0.037740240329504,-0.4281785786151886,-0.0467178672552108,0.5435598492622375,walking
1783087555259484400,6.171484375,1.171044232475385,1.4024667508006097,0.116976858651638,-0.3776800334453583,-0.039669431746006,0.7290371656417847,walking
1783087555269529300,6.181529296875,0.5850084310945123,1.148194102763757,0.6228799696534871,-0.2912269234657287,-0.0963846445083618,0.8573791980743408,walking
1783087555279573200,6.1915732421875,0.3041865065671503,0.8258549035862087,1.2886357889592648,-0.1974314749240875,-0.2127013504505157,0.933316171169281,walking
1783087555289617400,6.201617431640625,0.0904644801054149,0.6697909931059927,1.7201392002761362,-0.1275690346956253,-0.3120423257350921,0.9687204957008362,walking
1783087555299662300,6.211662353515625,-0.1652374700821936,0.5607641436107457,1.8438029893457888,-0.0920392945408821,-0.3939823806285858,0.9586561918258668,walking
1783087555309706200,6.221706298828125,-0.1524309608053416,0.3803057965863496,1.8721809425681828,-0.107360728085041,-0.4586612284183502,0.8918105959892273,walking
1783087555319750400,6.23175048828125,0.24618768738918,0.217887694773823,1.5858160700261592,-0.1580337584018707,-0.4732711017131805,0.7950108051300049,walking
1783087555329794000,6.2417939453125,0.6172963243022561,0.2772412164963782,0.967102572402358,-0.2165135890245437,-0.4192049503326416,0.7114037871360779,walking
1783087555339839200,6.251839111328125,0.9338260334834456,0.1980640732765197,0.4066781821399927,-0.2735503911972046,-0.3338125050067901,0.6297112703323364,walking
1783087555349883400,6.26188330078125,1.1631589591182767,-0.106290337203443,-0.0292769478887319,-0.3261440992355346,-0.2149066179990768,0.548582911491394,walking
1783087555359927300,6.27192724609375,1.267881170222163,-0.3822209094926714,-0.2122843218088149,-0.3781946301460266,-0.0860464349389076,0.46408611536026,walking
1783087555369972200,6.28197216796875,1.1727651379838586,-0.5865532493837178,-0.0786906748771667,-0.4368323683738708,0.0085892565548419,0.3850575983524322,walking
1783087555380016400,6.292016357421875,0.8351876723378896,-0.6955610288523137,0.187701669216156,-0.4901012480258941,0.0554924346506595,0.3104502260684967,walking
1783087555390060300,6.302060302734375,0.5095686477720737,-0.6976938030973077,0.5895815111637115,-0.5165941119194031,0.0584970116615295,0.2538314163684845,walking
1783087555400104200,6.312104248046875,0.2195676106847822,-0.6742242263130843,0.9824451029628516,-0.5133135318756104,0.0056511764414608,0.1925244629383087,walking
1783087555410149400,6.3221494140625,0.0847251327358186,-0.7150410976089536,1.2647189067989586,-0.4883889853954315,-0.0765371695160865,0.1400489956140518,walking
1783087555420193300,6.332193359375,-0.0070861588686704,-0.677741148392856,1.3091758881628512,-0.4406308233737945,-0.1651279926300048,0.1096354871988296,walking
1783087555430237200,6.3422373046875,-0.0088254037514328,-0.6340992828041315,1.241433308279514,-0.3751258254051208,-0.2320875823497772,0.1024939566850662,walking
1783087555440282400,6.352282470703125,0.1501598740682005,-0.5637808610834181,0.9890431860536336,-0.3014900088310241,-0.2254910916090011,0.1107537746429443,walking
1783087555450326300,6.362326171875,0.3192325383991002,-0.4295664519049227,0.4328425509661436,-0.2480185329914093,-0.1658615916967392,0.1653938591480255,walking
1783087555460370200,6.3723701171875,0.468179821807146,-0.1511648133270442,-0.1447609376341104,-0.2338423579931259,-0.0363934189081192,0.2791123390197754,walking
1783087555470415400,6.382415283203125,0.5490948947355151,0.1131765895858406,-0.6453180114328861,-0.2547287344932556,0.1298267096281051,0.4255896508693695,walking
1783087555480459300,6.392459228515625,0.7857005878522991,0.2098547565743327,-0.8848229331225156,-0.2867264449596405,0.3150497674942016,0.5379440188407898,walking
1783087555490503400,6.40250341796875,0.838221340945363,0.0900675166770815,-1.0561591584712269,-0.3224551379680633,0.5025568008422852,0.6022233963012695,walking
1783087555500547000,6.412547119140625,0.6948772843718528,-0.115675128403306,-1.0236077189564703,-0.3678703904151916,0.6463892459869385,0.6709820032119751,walking
1783087555510592300,6.42259228515625,0.4706589252717792,-0.3038547903947532,-0.6701981856673955,-0.4114266335964203,0.7149786949157715,0.7399924993515015,walking
1783087555520636400,6.432636474609375,0.2301101205524057,-0.5252627682492137,-0.2803507268190384,-0.4487124681472778,0.7593948245048523,0.7941915988922119,walking
1783087555530680000,6.44268017578125,-0.0550286442607641,-0.5687824687629938,-0.2372089197069406,-0.4798339009284973,0.7625170946121216,0.8210389614105225,walking
1783087555540725200,6.452725341796875,-0.2590804136447608,-0.7405866038843989,-0.1155365967154502,-0.4800122380256653,0.7129221558570862,0.8151621222496033,walking
1783087555550769400,6.462769287109375,-0.4267675419013947,-1.048289301878959,0.2333534133225679,-0.435571014881134,0.6266661286354065,0.7741363644599915,walking
1783087555560813300,6.472813232421875,-0.6052108958415686,-1.4047953398786484,0.5431441696375608,-0.3633313775062561,0.5300523638725281,0.6803815960884094,walking
1783087555570857200,6.482857177734375,-0.6821321498934179,-1.8085441905684767,0.6274877557098865,-0.2946668267250061,0.4081791937351227,0.5549506545066833,walking
1783087555580902400,6.49290234375,-0.6797119370091707,-2.0613453778132795,0.5798802013605833,-0.2359262704849243,0.2793176174163818,0.4094489216804504,walking
1783087555590946300,6.5029462890625,-0.5820313515124842,-2.260532463770359,0.4634814348578452,-0.1973088383674621,0.1450751274824142,0.268865704536438,walking
1783087555600990200,6.512990234375,-0.3165023827828466,-2.252867189839482,0.2014513776272535,-0.1731222569942474,-0.0072255115956068,0.1712713241577148,walking
1783087555611035400,6.523035400390625,0.0070109382079914,-2.051774416391551,-0.0882692350834608,-0.1373120695352554,-0.1814305931329727,0.1091413795948028,walking
1783087555621079300,6.533079345703125,0.3412762470986694,-1.9379180278480053,-0.3162649207651615,-0.0715317577123642,-0.3266783058643341,0.0511074177920818,walking
1783087555631123200,6.543123291015625,0.5323289803083986,-1.8039350893378256,-0.4568301602751016,0.0095519144088029,-0.435060441493988,-0.0053215026855468,walking
1783087555641168400,6.55316845703125,0.5194298973772674,-1.5982948817186056,-0.4806704700678587,0.0715592056512832,-0.4973367750644684,-0.0293844006955623,walking
1783087555651212300,6.56321240234375,0.3538222057431936,-1.4125658277496695,-0.3598194003313779,0.0904370173811912,-0.5246075391769409,-0.0248463749885559,walking
1783087555661256200,6.573256103515625,0.1990911513019353,-1.3040171902254225,-0.1774731206685304,0.0743693858385086,-0.5080139636993408,0.0016679061809554,walking
1783087555671300000,6.583300048828125,-0.0641379795201122,-1.2276948519147932,-0.06003448972404,0.0476693324744701,-0.4637927412986755,0.0144779765978455,walking
1783087555681345300,6.59334521484375,-0.2108794234469533,-1.2608322746239602,0.0859960294544696,0.0316811576485633,-0.4097746908664703,0.0084835607558488,walking
1783087555691389400,6.603389404296875,-0.1820090105324983,-1.3003899396389722,0.3048813569635152,0.018466018140316,-0.356669932603836,-0.0215803328901529,walking
1783087555701433000,6.61343310546875,-0.0509187247239053,-1.3289800743073223,0.3486211299687624,0.0031688357703387,-0.323181539773941,-0.0646658986806869,walking
1783087555711478300,6.623478271484375,0.1385422092497348,-1.2780483439713717,0.1902893476217985,-0.0107001075521111,-0.2954585552215576,-0.1164310947060585,walking
1783087555721522400,6.6335224609375,0.2526833330187946,-1.3052807804204525,-0.2390010638207197,-0.0106969121843576,-0.2634969055652618,-0.1717774420976638,walking
1783087555731566000,6.643566162109375,0.3550952213536947,-1.3297848148189484,-0.5735644423425197,0.0183432605117559,-0.2498162388801574,-0.2171811461448669,walking
1783087555741611300,6.653611328125,0.4757723227627575,-1.1640604380026458,-0.5683516761302948,0.0663294568657875,-0.2675451934337616,-0.25340735912323,walking
1783087555751655400,6.663655517578125,0.6698387777704745,-0.8674024272441864,-0.3014426146864891,0.108389027416706,-0.2519166767597198,-0.2568846344947815,walking
1783087555761699000,6.673698974609375,0.2251947298515587,-0.2804243765771388,-0.6586702449589967,0.1168636679649353,-0.0732379257678985,-0.1926593482494354,walking
1783087555771743200,6.6837431640625,-0.2063070009648799,0.0863731922037899,-1.0507716202139854,0.1017158776521682,0.0208928361535072,-0.1560696512460708,walking
1783087555781788400,6.693788330078125,0.7494764511741697,-0.0715304278589785,-0.3025391777515411,0.0716792568564415,0.0850441306829452,-0.2281882166862487,walking
1783087555791832300,6.703832275390625,0.617174305357784,-0.2095677563264966,-0.6759329299271106,0.0394491478800773,0.1713113784790039,-0.3570119738578796,walking
1783087555801876200,6.713876220703125,0.3540799068313092,-0.1332034785702824,-0.9967436774283648,0.0575034916400909,0.1488453149795532,-0.4620621800422668,walking
1783087555811921400,6.72392138671875,0.7870546328097582,-0.2629058171518146,-0.7268973934888839,0.144258365035057,0.0934291929006576,-0.574195146560669,walking
1783087555821965300,6.73396533203125,0.5759563059151173,-0.5675239931344985,-1.357284377771616,0.2446974664926529,0.1034006252884864,-0.6767045259475708,walking
1783087555832009200,6.74400927734375,0.4732734186191111,-0.5848490758143365,-2.0918208878368136,0.31113001704216,0.1144213154911995,-0.7230554819107056,walking
1783087555842054400,6.754054443359375,0.9896597105167806,-0.2070803234249353,-2.41512637476325,0.3453685939311981,0.1240791454911232,-0.7329273223876953,walking
1783087555852098300,6.764098388671875,1.223290917867422,0.2600155025377869,-2.465290043336153,0.3501268625259399,0.1128227636218071,-0.6931498050689697,walking
1783087555862142200,6.77414208984375,1.422630125646293,1.3638639022924006,-1.866117697006464,0.3354109525680542,-0.020939614623785,-0.5814607739448547,walking
1783087555872187400,6.7841875,1.657544066283852,1.706175702983886,-0.7692132711708545,0.3548722565174103,-0.1938637197017669,-0.4459996223449707,walking
1783087555882231300,6.794231201171875,1.5907392056420444,1.7207042868129907,-0.1286117668658495,0.4206429719924927,-0.3191230297088623,-0.3119058012962341,walking
1783087555892275500,6.804275390625,1.1885362692199646,1.912533411222696,0.5992863280981778,0.4967963099479675,-0.4836320877075195,-0.1568238139152526,walking
1783087555902319000,6.814319091796875,0.6928015010111034,1.8419030009433623,1.4038748640328644,0.5417303442955017,-0.674167275428772,0.0185034032911062,walking
1783087555912364300,6.8243642578125,0.6016198856122792,1.8740557965293525,1.989666919785738,0.5570754408836365,-0.9325104355812072,0.2128379940986633,walking
1783087555922408400,6.834408447265625,0.5538689772695302,1.9146312602847813,2.6283336566358804,0.5671426653862,-1.259292483329773,0.4150044918060303,walking
1783087555932452000,6.8444521484375,0.5026926245227455,1.8128332660645248,3.072883012008667,0.6099860072135925,-1.5961618423461914,0.6072671413421631,walking
1783087555942497300,6.854497314453125,0.5543523768723011,1.6801429977133868,3.2257039219796657,0.7149322628974915,-1.8773603439331057,0.7461805939674377,walking
1783087555952541400,6.86454150390625,0.573969662142545,1.4810726700037715,3.0292022757142782,0.8108603954315186,-2.037724018096924,0.7794461250305176,walking
1783087555962585000,6.874585205078125,0.4267081398643553,1.06440106324628,2.2408184401273727,0.7502233982086182,-1.9852880239486697,0.7069830298423767,walking
1783087555972630300,6.88463037109375,-0.1448572376154363,0.5677237534902989,1.1097604002773762,0.7463237047195435,-1.7187976837158203,0.6104229092597961,walking
1783087555982674400,6.89467431640625,-0.8625362825125455,0.3443813004419207,0.0867202520757913,0.7480478882789612,-1.215736746788025,0.5283504128456116,walking
1783087555992718300,6.90471826171875,-1.506952376669645,0.0312558467462658,-1.2273258724719285,0.676640510559082,-0.6287123560905457,0.4434365928173065,walking
1783087556002763300,6.91476318359375,-1.6271254010140894,-0.0765023710526525,-2.109778569331765,0.5308661460876465,-0.0266555268317461,0.336346298456192,walking
1783087556012807400,6.924807373046875,-1.466517782689631,-0.3275207665339112,-2.8887516024947164,0.3448747098445892,0.5329099893569946,0.1600394695997238,walking
1783087556022851300,6.934851318359375,-1.2691425684601068,-0.7596399716615676,-3.392638112977147,0.1774565577507019,0.9951514005661012,-0.0634715929627418,walking
1783087556032895200,6.944895263671875,-1.1612193693578243,-1.0801819852240382,-3.3039392543047663,0.0546283833682537,1.3242387771606443,-0.2686764299869537,walking
1783087556042940200,6.954940185546875,-1.2577332856953145,-1.2516139260321857,-2.7905460798084736,-0.0145346093922853,1.515705704689026,-0.4241733253002167,walking
1783087556052984300,6.964984375,-1.4600104466222226,-1.0954225167147815,-2.0956296324700117,-0.0519464313983917,1.5608599185943604,-0.4958634972572326,walking
1783087556063028200,6.9750283203125,-1.3219503218010067,-0.5970278816469013,-1.2389520128577949,-0.0817086100578308,1.4752167463302612,-0.4785084426403045,walking
1783087556073073200,6.9850732421875,-0.9381804293006658,-0.0695877693586051,-0.4029021707326173,-0.1297275424003601,1.2633016109466553,-0.4069690108299255,walking
1783087556083117300,6.995117431640625,-0.4926365099325775,0.3597067337371408,0.2075315743237733,-0.1529631465673446,0.9471093416213988,-0.3087105453014374,walking
1783087556093161500,7.005161376953125,-0.1478951440066099,0.53389045747146,0.6330360374867916,-0.0900720581412315,0.670502781867981,-0.2039252668619156,walking
1783087556103206100,7.0152060546875,-0.1597539241045713,0.7427741770565509,0.7886515466123819,0.024067910388112,0.4187507331371307,-0.0594952441751956,walking
1783087556113250300,7.025250244140625,-0.2181596435829997,0.8890387972518801,1.03034082660377,0.1463549435138702,0.1407579928636551,0.0998731106519699,walking
1783087556123294500,7.03529443359375,-0.3287378872387111,0.3600399112142622,1.199243687325716,0.2455992996692657,-0.0206188764423131,0.2188452035188675,walking
1783087556133339100,7.045339111328125,-0.439326360027492,-0.0645519671484828,0.8544073365926742,0.3051307797431946,-0.0819165930151939,0.2804883122444153,walking
1783087556143383300,7.05538330078125,-0.5332848927937448,-0.1602513522326946,0.7662953378975391,0.3269445300102234,-0.1092844009399414,0.3086142838001251,walking
1783087556153427500,7.065427490234375,-0.4643031265042722,-0.1624348337516188,0.868016759750247,0.2957916855812073,-0.1124189421534538,0.3109487891197204,walking
1783087556163471000,7.07547119140625,-0.264393425361067,-0.2328415182776749,0.931294176918268,0.237643614411354,-0.1238967329263687,0.3186478316783905,walking
1783087556173516300,7.085516357421875,-0.1675130137987434,-0.3292942790124565,1.1268915678203106,0.2102657854557037,-0.1280384808778762,0.3349064588546753,walking
1783087556183560400,7.095560546875,-0.2014380797542631,-0.4950288849618285,1.124881981563568,0.1997259557247162,-0.1223488673567771,0.339777410030365,walking
1783087556193604400,7.105604248046875,-0.1408304663173854,-0.6565547871749847,1.0634779570519923,0.1898608207702636,-0.1098352074623107,0.326141744852066,walking
1783087556203649300,7.115649169921875,0.0514513702958822,-0.6497864620838314,0.9932377151340246,0.1747192591428756,-0.102524034678936,0.3251255750656128,walking
1783087556213693200,7.125693115234375,0.3499395190909504,-0.4707771448239684,0.8957014700114726,0.1427855640649795,-0.1020127087831497,0.3655132055282593,walking
1783087556223737300,7.1357373046875,0.4919214935310184,-0.0314667130179703,0.8339110765308141,0.0607527494430542,-0.1326308995485305,0.4630243182182312,walking
1783087556233782300,7.1457822265625,0.8280826626382768,0.3289154357627034,1.0630021562337877,-0.0392412282526493,-0.2302176505327224,0.5706629157066345,walking
1783087556243826200,7.155826171875,1.1768255192905663,0.2848029569875449,1.234462300223112,-0.1112302839756012,-0.2831783592700958,0.6445540189743042,walking
1783087556253870300,7.165870361328125,1.069546317180246,0.2759738999743014,1.2549895399451254,-0.1193020567297935,-0.3005011677742004,0.7008050680160522,walking
1783087556263915300,7.175915283203125,0.6709012193702161,0.2206885044734925,1.4408078796327113,-0.126185730099678,-0.3134352564811706,0.7717543244361877,walking
1783087556273959200,7.185959228515625,0.2806356812402605,-0.1596950335241854,1.5205343272984029,-0.1370791345834732,-0.3054103255271911,0.8236452341079712,walking
1783087556284003300,7.19600341796875,-0.2615140705324709,-0.6565585865672677,1.561398252606392,-0.1211557909846305,-0.2819539606571197,0.8352445960044861,walking
1783087556294048300,7.20604833984375,-0.6168718152798712,-1.097323966421932,1.7416157035470008,-0.0704145804047584,-0.2754031121730804,0.7831071019172668,walking
1783087556304092200,7.216092041015625,-0.580424245109409,-1.3880273065596818,1.9620453378885985,-0.0223099868744611,-0.2713374495506286,0.7302091121673584,walking
1783087556314136300,7.22613623046875,-0.8242400157354771,-1.3827818071216345,1.7283599161326884,0.023856708779931,-0.2306877672672271,0.683844268321991,walking
1783087556324181200,7.23618115234375,-1.0983863349564371,-1.4461385731361809,1.3763701865136622,0.0648429542779922,-0.1747436076402664,0.6088837385177612,walking
1783087556334225200,7.24622509765625,-0.9706842302814126,-1.7497291596367954,1.205668751937151,0.0828203558921814,-0.1657011061906814,0.4787504971027374,walking
1783087556344269300,7.256269287109375,-0.4300437140278518,-2.139486017592251,1.2826292420208454,0.0809387862682342,-0.1944618374109268,0.2964219152927398,walking
1783087556354313500,7.2663134765625,-0.0296142170190811,-2.3718039503872395,1.1765431952178478,0.0545567162334919,-0.2275726646184921,0.1084229797124862,walking
1783087556364358100,7.276358154296875,0.073470017619431,-2.320747278497368,0.8816922338813543,0.0212260372936725,-0.2344582676887512,-0.0466416142880916,walking
1783087556374402300,7.28640234375,-0.0698880674794316,-2.179882325388491,0.4528232627213001,-0.0397528931498527,-0.0409721583127975,-0.190884530544281,walking
1783087556384446200,7.2964462890625,-0.4213163638234138,-1.905556265686452,-0.5472217943400144,-0.0247177127748727,0.1213131621479988,-0.2468950003385543,walking
1783087556394491100,7.3064912109375,-1.1086381182491778,-1.6788725393861532,-0.3382178093761205,0.0711286514997482,0.3354973495006561,-0.2019102126359939,walking
1783087556404535300,7.316535400390625,-1.436395908409357,-2.1336210710816084,-0.6544388909995555,0.1553408801555633,0.5324710011482239,-0.2173940539360046,walking
1783087556414579200,7.3265791015625,-0.9960049878902733,-2.248532229375094,-0.8462368896186351,0.1882200092077255,0.6682314872741699,-0.2613053023815155,walking
1783087556424624000,7.3366240234375,-0.7434864169791341,-2.092870396889746,-0.92252517952919,0.1283292472362518,0.7361942529678345,-0.2682206630706787,walking
1783087556434668300,7.346668212890625,-0.2856023637369275,-1.6616069318085909,-1.166417522522807,0.0183966271579265,0.7138293385505676,-0.2469379901885986,walking
1783087556444712200,7.356712158203125,0.0519691105596721,-1.3206523909449577,-1.3123445813268422,-0.0882854610681533,0.6330335140228271,-0.2340928614139557,walking
1783087556454757000,7.366757080078125,0.139744863037765,-1.2708791829943655,-1.5544231528967618,-0.1506119519472122,0.5102463960647583,-0.2400061339139938,walking
1783087556464801300,7.37680126953125,-0.1507230609089136,-1.2942775942385196,-1.6989000128924845,-0.1604837477207183,0.3332025110721588,-0.19183249771595,walking
1783087556474845200,7.38684521484375,-0.939575098529458,-1.166388004167378,-1.6321768391847609,-0.1502745151519775,0.1372332721948623,-0.1154682263731956,walking
1783087556484890000,7.39689013671875,-2.3299901770085096,-1.5571712825611232,-1.8928741865068672,-0.1315359026193618,0.1501287668943405,0.0273034665733575,walking
1783087556494934300,7.406934326171875,-3.8451933724120257,-1.567711089015007,-3.198277570393681,0.0041524143889546,0.1798621565103531,0.118878923356533,walking
1783087556504978200,7.416978271484375,-1.486324014660716,-1.410910754019022,-3.035360213822126,0.141217827796936,0.1972009688615799,0.1138107031583786,walking
1783087556515023000,7.427023193359375,-1.2769671246059238,-0.6612390725336968,-3.990708051022887,0.2115388661623001,0.4939253330230713,0.135264590382576,walking
1783087556525067300,7.4370673828125,-2.071402369186282,1.037387164918706,-5.4335564965724945,0.2116817086935043,0.9193562865257264,0.229616105556488,walking
1783087556535111200,7.447111083984375,-0.8742587228797376,2.312466210755706,-5.279413398087025,0.1508838832378387,1.2659456729888916,0.369777500629425,walking
1783087556545156400,7.45715625,-0.0900617445234209,2.8663769813403484,-4.650439203211665,0.0782404765486717,1.5615094900131226,0.4658609926700592,walking
1783087556555200300,7.4672001953125,-0.4354918233659118,2.7973350092962384,-3.9424481702446936,0.038985751569271,1.7385172843933103,0.5173832774162292,walking
1783087556565244200,7.477244140625,0.092747038084641,2.522576695656776,-2.3257412873923777,0.0586923994123935,1.6712194681167605,0.4820358753204345,walking
1783087556575289300,7.487289306640625,1.0914746558718382,1.9336954417169092,-0.3602081073880195,0.0855873972177505,1.4339802265167236,0.4184885919094085,walking
1783087556585333200,7.497333251953125,0.6650633800622076,1.7457661012247203,0.4959644853115081,0.0959857553243637,1.129192352294922,0.33946493268013,walking
1783087556595377200,7.507377197265625,0.6736639620818198,1.473935803861171,1.6290905636072155,0.0749992430210113,0.7094674706459045,0.2335041761398315,walking
1783087556605422300,7.51742236328125,0.5142569517187774,1.2227448282919824,2.6360803252398965,0.0401255264878273,0.3017130494117737,0.1394374370574951,walking
1783087556615466200,7.52746630859375,-0.489272148066014,0.9636636839948594,2.928800119766593,0.0312952846288681,-0.0464134737849235,0.0278816074132919,walking
