time,seconds_elapsed,accel_x,accel_y,accel_z,gyro_x,gyro_y,gyro_z,label
1783090567517427500,0.059427490234375,-0.6248987621299922,-1.84149310496822,-0.0072469023883342,0.2313221991062164,-0.755459189414978,-0.5289762020111084,walking
1783090567527472400,0.069472412109375,-0.4085192068967967,-1.5189895820744337,0.3866425253272056,0.3380939066410064,-0.8576030135154724,-0.4319003224372864,walking
1783090567537516500,0.0795166015625,-0.1525726342983543,-0.9723081782214344,0.4987520702034235,0.3124918937683105,-0.8765023946762085,-0.2755991220474243,walking
1783090567547561700,0.089561767578125,0.2379917406477034,-0.3613058394968509,0.4155716826915741,0.1988054811954498,-0.8161202669143677,-0.0916304960846901,walking
1783090567557605600,0.099605712890625,0.789620245514065,0.0046688685938715,0.3698497959583997,0.060503002256155,-0.7018712162971497,0.0940730571746826,walking
1783090567567650600,0.109650634765625,1.059781367556378,0.2234954516530037,0.4273638272941112,-0.0683199092745781,-0.5925412774085999,0.2599805891513824,walking
1783090567577694700,0.11969482421875,1.203763722033426,-0.1063525887846946,0.3228150730609894,-0.1541903465986251,-0.5542093515396118,0.3638769090175628,walking
1783090567587739400,0.129739501953125,1.240726913575828,-0.6829327256865799,0.2192337025552987,-0.2135544866323471,-0.5511003136634827,0.3919451534748077,walking
1783090567597783600,0.139783447265625,1.2007126638997343,-1.180055441122502,0.0044148938328027,-0.2609017491340637,-0.5449239015579224,0.3576220571994781,walking
1783090567607828700,0.149828857421875,0.8980400690268725,-1.396150991782546,-0.1225187106877565,-0.2806728780269623,-0.5383554697036743,0.2902764081954956,walking
1783090567617872400,0.159872314453125,0.5967917348034679,-1.5844458045862615,-0.0714957949370145,-0.2561771273612976,-0.5645657777786255,0.1811648458242416,walking
1783090567627917600,0.16991748046875,0.4128010489344597,-1.770801173759997,-0.0480664040327072,-0.1730770021677017,-0.639299213886261,0.0450494885444641,walking
1783090567637961700,0.179961669921875,0.356625426595658,-1.5181006704106923,-0.1992372087091207,-0.0650751665234565,-0.6641891002655029,-0.0643142908811569,walking
1783090567648006400,0.19000634765625,-0.1806812690600752,-1.3364134391784668,-0.97289869146049,0.0226434078067541,-0.5346291661262512,-0.1295929998159408,walking
1783090567658050600,0.200050537109375,-0.3146986943617463,-1.2354089334234597,-1.7683453050404787,0.1148974373936653,-0.3618421852588653,-0.1252193003892898,walking
1783090567668095500,0.210095458984375,0.3950606634519994,-0.7776064209848642,-2.242659684079886,0.1793683022260666,-0.2437397688627243,-0.1532357484102249,walking
1783090567678139400,0.220139404296875,0.8156408219553529,-0.7203804128102957,-2.788204485118389,0.2043341100215912,-0.1561430841684341,-0.2193098366260528,walking
1783090567688184600,0.2301845703125,1.1841396416962149,-0.2862165501125157,-2.8883821846604345,0.1998781859874725,-0.1166121512651443,-0.2396582514047622,walking
1783090567698228500,0.240228515625,1.522418972001225,-0.0483577881947159,-2.7555174365252255,0.2096679657697677,-0.1315189152956009,-0.2263285964727401,walking
1783090567708273700,0.250273681640625,1.2886394422210752,-0.0351806189745664,-2.925612721902132,0.2713901400566101,-0.1486124843358993,-0.1922254711389541,walking
1783090567718317600,0.260317626953125,1.1367251257009805,0.0656586132161319,-3.0049510470330714,0.3969294130802154,-0.1582616567611694,-0.1362024247646331,walking
1783090567728362500,0.270362548828125,1.260120326962322,0.5171686013817787,-2.731247503143549,0.5345039963722229,-0.180798202753067,-0.0440692864358425,walking
1783090567738406700,0.28040673828125,1.4171974330730734,1.0374341458655894,-2.079586844685674,0.6071350574493408,-0.2290003597736358,0.0733028799295425,walking
1783090567748450600,0.290450439453125,1.5028046093404293,1.4508831373147666,-1.0908055244386194,0.5923061370849609,-0.3339190185070038,0.1991753578186035,walking
1783090567758495200,0.3004951171875,1.629603189304471,1.898616383420676,-0.0008072247296571,0.5191261768341064,-0.4955571591854095,0.3406834900379181,walking
1783090567768539400,0.310539306640625,1.8231744812063873,2.4634844552189112,0.9836801977157592,0.4494535028934479,-0.6953263282775879,0.5162739753723145,walking
1783090567778584600,0.32058447265625,1.8614754241585731,2.8500246892154215,1.7718027520179749,0.4159554541110992,-0.9027567505836488,0.6904750466346741,walking
1783090567788628200,0.330628173828125,1.6051798189267514,2.821837874650955,2.297933827534318,0.4114638566970825,-1.1023441553115845,0.8246253132820129,walking
1783090567798673400,0.34067333984375,1.1149715590544045,2.5157857203423974,2.6773832264870405,0.4071018695831299,-1.2746238708496094,0.8877938985824585,walking
1783090567808717600,0.350717529296875,0.4840089668408036,2.21424665954411,2.916074493706226,0.3907699286937713,-1.380013108253479,0.8910358548164368,walking
1783090567818762500,0.360762451171875,-0.2485449911050498,2.099843743033707,2.9147476290166376,0.3528161644935608,-1.404892086982727,0.8796079754829407,walking
1783090567828806400,0.370806396484375,-0.8400688685081898,1.9046528871059416,2.500549572765827,0.2953140437602997,-1.3144078254699707,0.8361585140228271,walking
1783090567838851300,0.380851318359375,-1.5093725895538923,1.4919938769906758,1.603437066912651,0.2316581159830093,-1.1038625240325928,0.7518007755279541,walking
1783090567848895200,0.390895263671875,-1.7900955106861889,1.2107209207601846,0.5450105480313301,0.1987933665513992,-0.836012601852417,0.6955311894416809,walking
1783090567858940400,0.4009404296875,-1.2872688845202327,1.2152519883185624,-0.6851578543901443,0.2166381478309631,-0.5020785927772522,0.6482566595077515,walking
1783090567868984600,0.410984619140625,-1.573824311198294,0.5976297930628061,-2.563161804023385,0.2259509414434433,-0.0115362890064716,0.5203479528427124,walking
1783090567879029500,0.421029541015625,-1.7174413394942878,-0.0305798471808433,-4.13042807188034,0.2313331812620163,0.5042276978492737,0.4271314442157745,walking
1783090567889073400,0.431073486328125,-1.0041206359371542,0.1256346507512032,-4.589352574086189,0.2629019916057586,0.9170777797698976,0.3817722499370575,walking
1783090567899118300,0.441118408203125,-0.0606051292188465,0.316399214669317,-4.26485700059235,0.3085722625255584,1.1785684823989868,0.3449489772319793,walking
1783090567909162500,0.45116259765625,0.516529280564934,0.3829990542583167,-3.3161569308429955,0.3173493444919586,1.2790607213974,0.3076204359531402,walking
1783090567919207400,0.46120751953125,0.9759120479322968,0.4655084106408059,-1.9503361953943967,0.3070599436759949,1.1942219734191897,0.3142088055610657,walking
1783090567929251300,0.471251220703125,0.9257298207893968,0.6350839099273086,-0.2184025124281644,0.3107317388057709,0.9484564065933228,0.3720926940441131,walking
1783090567939296500,0.481296630859375,0.8703808585330843,0.6479051053166389,0.93089904012084,0.2937487661838531,0.6824526786804199,0.4182713627815246,walking
1783090567949340400,0.49134033203125,0.6087662502355873,0.4715547050677239,1.6568337260574102,0.2290778458118438,0.4346739947795868,0.4359191060066223,walking
1783090567959385300,0.50138525390625,0.2402662614509463,0.3295074103064835,2.2291636581689116,0.1489031165838241,0.2060647755861282,0.4569729566574096,walking
1783090567969429500,0.511429443359375,-0.1743992661811411,0.2841208930075168,2.4915660558432338,0.1032134965062141,-0.0268845725804567,0.5063666701316833,walking
1783090567979474400,0.521474365234375,-0.493692302595824,0.3059872723788023,2.271227606916427,0.1440208405256271,-0.2489996701478958,0.5604773163795471,walking
1783090567989518300,0.531518310546875,-0.8663717690221965,0.2908917023167014,1.7655770093709229,0.2533105909824371,-0.4037905633449554,0.5960198640823364,walking
1783090567999562500,0.5415625,-1.146303539776802,0.260295196262002,1.287452716654539,0.3731389939785003,-0.5060668587684631,0.6140233278274536,walking
1783090568009607400,0.551607421875,-1.073617804402858,0.3716910399109125,0.9967764106541872,0.4265834987163543,-0.5344292521476746,0.6203091740608215,walking
1783090568019651300,0.5616513671875,-0.7609693205691873,0.6683788612857461,1.032097899404168,0.399518609046936,-0.5219160914421082,0.6254690289497375,walking
1783090568029696500,0.571696533203125,-0.4717936283901333,0.8284658167369663,1.127739124560356,0.3198311328887939,-0.4995631277561188,0.6171783208847046,walking
1783090568039740400,0.581740478515625,-0.2688832841262221,0.7407144680477679,1.194482172012329,0.2353034913539886,-0.4583272635936737,0.5925539135932922,walking
1783090568049785300,0.591785400390625,-0.3119108172088861,0.4728589195340871,1.1271019957005977,0.1893623173236847,-0.4043227434158325,0.5522429943084717,walking
1783090568059829500,0.60182958984375,-0.3846767782121896,0.0115402156680822,0.9345587316721676,0.2051476687192917,-0.3493585586547851,0.4806913733482361,walking
1783090568069874400,0.61187451171875,-0.4795581249117851,-0.5876327151834965,0.6630494829565287,0.2602857053279876,-0.3000035285949707,0.3768382966518402,walking
1783090568079918300,0.62191845703125,-0.461435169852525,-0.960783890774846,0.5925304240971804,0.321268618106842,-0.2679851353168487,0.2752136588096618,walking
1783090568089963500,0.631963623046875,-0.1749585074990987,-1.0515108942739664,0.558724016085267,0.3620001375675201,-0.2420712560415268,0.1671150624752044,walking
1783090568100007400,0.64200732421875,-0.0093095340065658,-1.1341757334791125,0.2520475923985242,0.3823445737361908,-0.2178175747394561,0.0620719976723194,walking
1783090568110052400,0.65205224609375,0.0967202525645494,-0.9412531147442758,0.0279857390344142,0.3741785883903503,-0.1723763644695282,-0.0044794101268053,walking
1783090568120096500,0.662096435546875,0.2357788869038224,-0.8078564516894519,-0.2369908930420875,0.3373191058635711,-0.1259257793426513,-0.0250493995845317,walking
1783090568130141400,0.672141357421875,0.2886696423530578,-0.6600231208726763,-0.3002519435971975,0.2912102937698364,-0.1023969054222107,0.0056377947330474,walking
1783090568140185300,0.682185302734375,0.2110420666627585,-0.4412310246050357,-0.1496516322851181,0.245288074016571,-0.106019876897335,0.0599601566791534,walking
1783090568150230500,0.69223046875,0.2089934635698795,-0.2660509833097457,0.2455547232478857,0.2434665709733963,-0.139707401394844,0.1767351031303405,walking
1783090568160274400,0.7022744140625,0.1220250819519162,-0.0176459851972758,0.6127350077360868,0.2591757476329803,-0.2137099951505661,0.3389884531497955,walking
1783090568170319400,0.7123193359375,0.1368986798264086,0.1731312920719385,0.8877735996216535,0.2640167772769928,-0.3059693574905395,0.504994809627533,walking
1783090568180363500,0.722363525390625,0.3519277702987194,0.2697764335736632,1.0242898560017346,0.2736310660839081,-0.3993552327156067,0.6610739231109619,walking
1783090568190408400,0.732408447265625,0.6022651977784931,0.4422058609865605,1.0527058031469585,0.2962020337581634,-0.4789899885654449,0.8223354816436768,walking
1783090568200452400,0.742452392578125,0.7071041671298444,0.6768576435565948,1.028487307691574,0.3127053678035736,-0.5219014883041382,0.9867193698883056,walking
1783090568210497300,0.752497314453125,0.5717448256999254,0.7353846513271332,0.9146616065472364,0.2988139688968658,-0.542567253112793,1.122099995613098,walking
1783090568220541400,0.76254150390625,0.3310419263973831,0.6153286774910987,0.9369184465408325,0.2824128866195678,-0.5242074131965637,1.2214531898498535,walking
1783090568230585300,0.77258544921875,-0.0904044935464859,0.4986525553517043,0.8086708368122577,0.2849541008472442,-0.455332487821579,1.2862788438796997,walking
1783090568240630300,0.78263037109375,-0.5288248446449637,0.3957622358500957,0.6814999164044857,0.3181751668453216,-0.3592608273029327,1.3411979675292969,walking
1783090568250674400,0.79267431640625,-0.6363369787283242,0.3819264565907418,0.6926333048373461,0.355749249458313,-0.2860080599784851,1.3909132480621338,walking
1783090568260719600,0.8027197265625,-0.5302035856522619,0.5512216776311397,0.7564554964065552,0.3496202528476715,-0.2417881190776825,1.455078125,walking
1783090568270763500,0.812763427734375,-0.5286882126532495,0.7757442803747951,0.6133709675520658,0.2940431833267212,-0.1855362355709076,1.5383330583572388,walking
1783090568280808400,0.822808349609375,-0.5888970360308885,0.9592357845500112,0.32635727571249,0.2297869771718979,-0.1102236360311508,1.626454472541809,walking
1783090568290852400,0.832852294921875,-0.5537308839730918,1.118059442067146,0.0746744249731302,0.1800587922334671,-0.031128317117691,1.7191994190216064,walking
1783090568300897300,0.842897216796875,-0.324859730631113,1.2995226552851498,-0.0765554164141416,0.1461964249610901,0.0082409279420971,1.809182047843933,walking
1783090568310941400,0.85294140625,-0.0909621274292468,1.3117410624757408,-0.1433411339640617,0.1107546612620353,-0.0053665111772716,1.8825782537460327,walking
1783090568320986600,0.862986572265625,0.0549359975412487,1.2079526250906287,-0.0811971047401428,0.0690144076943397,-0.067251980304718,1.9208146333694456,walking
1783090568331030300,0.8730302734375,-0.0223429108418524,1.027589043677598,0.0084580317437648,0.0166065599769353,-0.1580439656972885,1.9336323738098145,walking
1783090568341075500,0.883075439453125,-0.397091438627243,0.7224184945091605,0.1800181289762258,-0.0305159445852041,-0.2883130013942718,1.9141374826431272,walking
1783090568351119600,0.89311962890625,-1.3048900275371969,0.2168660966411232,0.5468640669435262,-0.078584685921669,-0.4413698613643646,1.8716834783554075,walking
1783090568361164300,0.903164306640625,-2.4025614922225476,-0.3369483739621937,0.9799626384973524,-0.1369673013687133,-0.6038732528686523,1.796140193939209,walking
1783090568371208400,0.91320849609375,-3.190689599482715,-0.8845485000953077,1.3496236338853835,-0.1189536675810813,-0.7150649428367615,1.687982439994812,walking
1783090568381253400,0.92325341796875,-4.011402756266295,-0.8223458725519478,0.4851227733016013,0.0298366043716669,-0.6445519328117371,1.5483936071395874,walking
1783090568391297300,0.93329736328125,-3.0669582981348036,-0.991421459492296,-0.4943143800169229,0.1645215302705764,-0.5920782089233398,1.3581897020339966,walking
1783090568401342500,0.943342529296875,-1.0939262868076562,-1.1044035494193434,-1.0176076017588376,0.2674686908721924,-0.5548064708709717,1.1944804191589355,walking
1783090568411386400,0.953386474609375,1.7691674350783229,0.2425418051674961,-1.8471172284603117,0.3606852293014526,-0.5781617760658264,1.1887178421020508,walking
1783090568421431600,0.963431640625,3.814077226397395,1.6324879509605466,-2.513559860986471,0.4530141055583954,-0.4961068332195282,1.2840361595153809,walking
1783090568431475500,0.973475341796875,3.79316069509685,2.0003975726366043,-3.5938854924648997,0.466390460729599,-0.1390046924352646,1.3988183736801147,walking
1783090568441520400,0.983520263671875,2.4336624406680465,1.6907102766960858,-4.394840640333294,0.3575824797153473,0.4190553724765777,1.5132967233657837,walking
1783090568451564300,0.993564208984375,0.9747599552877246,0.9586676292732358,-4.361723968151211,0.1600995808839798,0.957798719406128,1.6190584897994995,walking
1783090568461609500,1.003609375,0.1482210149601101,0.0420775388814508,-3.1657980270713564,-0.0096654891967773,1.2525533437728882,1.6519863605499268,walking
1783090568471653400,1.0136533203125,0.0188555071175098,-0.6441543744809926,-1.540702086058259,-0.039527241140604,1.2283791303634644,1.60382878780365,walking
1783090568481697300,1.023697265625,0.5006194715104997,-0.9984789767883716,-0.2603437115788459,0.0467229597270488,0.9789203405380248,1.5098037719726562,walking
1783090568491742500,1.033742431640625,0.7990466838985681,-1.0178303045988082,0.3482353455215692,0.1562155336141586,0.6454282402992249,1.402268409729004,walking
1783090568501786400,1.043786376953125,0.9559472643986344,-1.0167040770478546,0.7785135989576578,0.1977605819702148,0.2925263941287994,1.2932997941970823,walking
1783090568511831600,1.05383154296875,1.344318074823171,-1.235216041199863,1.4735107103168965,0.1519666463136673,-0.055493127554655,1.1697970628738403,walking
1783090568521875500,1.06387548828125,1.614598366265744,-1.3892672236181796,1.9707716651797291,0.0521630868315696,-0.3640341758728027,1.0443333387374878,walking
1783090568531920400,1.07392041015625,1.87504407691434,-1.3846100454621015,2.207525826856494,-0.0452325716614723,-0.5875087976455688,0.9263773560523988,walking
1783090568541964500,1.083964599609375,2.192371804605424,-1.322069272005558,2.228475675904751,-0.0857810676097869,-0.7229204177856445,0.8347558379173279,walking
1783090568552009500,1.094009521484375,2.3381072863601147,-1.138354626598954,1.6876561498224734,-0.0651899129152298,-0.7462158203125,0.788526177406311,walking
1783090568562053400,1.104053466796875,2.615697462424636,-0.8894894636288285,1.0040864414066075,-0.0574563629925251,-0.6536957025527954,0.7418412566184998,walking
1783090568572098600,1.1140986328125,2.8334444335535167,-0.9851678059250116,0.372958283367753,-0.0219560973346233,-0.5014479756355286,0.6772782802581787,walking
1783090568582142500,1.124142578125,2.597182731568813,-0.6473495172604918,-0.1310118137449026,0.0627675801515579,-0.3336387276649475,0.7641468644142151,walking
1783090568592187400,1.1341875,2.4536995587855577,-0.1522276202529668,-0.5284709166407585,0.1186208352446556,-0.1750887781381607,0.8932269215583801,walking
1783090568602231600,1.1442314453125,2.465111179637909,-0.1420347275406122,-0.5491869569331407,0.1138375326991081,-0.0575163476169109,1.0121186971664429,walking
1783090568612276200,1.154276123046875,2.240101085638255,-0.3043041415974498,-0.3772381526440382,0.0837454721331596,0.0498267076909542,1.1178021430969238,walking
1783090568622320400,1.1643203125,1.8561757103152572,-0.3925445889778435,0.035343700581789,0.0457802452147007,0.1363453567028045,1.196342706680298,walking
1783090568632365600,1.174365478515625,1.541046953973174,-0.4294952863648533,0.6211287420719862,0.0220066402107477,0.1423620283603668,1.2551836967468262,walking
1783090568642409200,1.1844091796875,1.4650585237920284,-0.6670512659437954,1.2900579307168722,0.0202675964683294,0.0690044686198234,1.2893388271331787,walking
1783090568652454400,1.194454345703125,1.538162484578043,-0.7015745900534093,1.5783353588819502,0.0436096787452697,-0.040752038359642,1.3388121128082275,walking
1783090568662498600,1.20449853515625,1.758983164063841,-0.23756430901587,1.5084399848788976,0.0685664266347885,-0.152660459280014,1.4514760971069336,walking
1783090568672543500,1.21454345703125,2.1027682521782816,0.2734520533464848,1.1776678153336049,0.0888972207903862,-0.2375238090753555,1.6200023889541626,walking
1783090568682587400,1.22458740234375,2.3342397972770033,0.5553595080882311,0.6600982319355011,0.1047057434916496,-0.24812051653862,1.7843724489212036,walking
1783090568692632300,1.23463232421875,2.3069572380758823,0.5893222757056356,-0.1329120944082737,0.1103782802820205,-0.1463451534509658,1.9287208318710327,walking
1783090568702676500,1.244676513671875,2.0282782438613474,0.5134425665959715,-0.9855740486383436,0.0942725464701652,0.0629779770970344,2.044177770614624,walking
1783090568712720400,1.254720458984375,1.6028966764256358,0.2252178915314376,-1.6221920362651348,0.0357869490981102,0.3385674357414245,2.0941247940063477,walking
1783090568722765600,1.264765625,1.2581336831897496,-0.1183202360846102,-1.8264070333868263,-0.0332267433404922,0.5742795467376709,2.0692477226257324,walking
1783090568732809200,1.274809326171875,1.197387099673599,-0.546020455726236,-1.3191127602875232,-0.1164745166897773,0.6739820241928101,1.950353980064392,walking
1783090568742854400,1.2848544921875,1.312690764416009,-1.0585483916953204,-0.9485340655326844,-0.155961737036705,0.6797781586647034,1.7703919410705566,walking
1783090568752898300,1.294898193359375,1.2900965091615917,-1.190547316781431,-0.9507587558448314,-0.1508210152387619,0.609578013420105,1.6035882234573364,walking
1783090568762943200,1.304943115234375,1.275054130591452,-1.2167318516127763,-1.1121242067992687,-0.1078977733850479,0.5162438154220581,1.4631168842315674,walking
1783090568772987400,1.3149873046875,1.201296162876114,-1.2515234712697565,-1.1897826160192488,-0.0671941041946411,0.4047561585903168,1.3388235569000244,walking
1783090568783032000,1.325031982421875,1.2813335031218829,-1.4584461199149488,-0.9274883548945188,-0.0477240011096,0.2753086686134338,1.2343722581863403,walking
1783090568793076200,1.335076171875,1.3665715538159011,-1.6218223261699078,-0.5452852733194827,-0.0305419135838747,0.1011358946561813,1.1645599603652954,walking
1783090568803121400,1.345121337890625,1.5616501815408468,-1.6873466454818844,-0.1734171232759952,0.0149949453771114,-0.1118794381618499,1.1215615272521973,walking
1783090568813165300,1.355165283203125,1.4736632705301045,-1.7769617422163486,0.0036205285847187,0.0949811413884162,-0.3225714564323425,1.075997233390808,walking
1783090568823210200,1.365210205078125,1.2550564677014946,-1.8882023953035472,0.0936351460307836,0.1866205036640167,-0.4913154542446136,1.0242009162902832,walking
1783090568833254400,1.37525439453125,1.035723031098768,-1.839716304554045,0.1791448532730341,0.2581556141376495,-0.6136085987091064,0.9832744002342224,walking
1783090568843299300,1.38529931640625,1.0215339814223348,-1.6744801496461033,0.1888712975174188,0.3007568717002868,-0.6858436465263367,0.9568244218826294,walking
1783090568853343200,1.39534326171875,1.2274559285923838,-1.325510060109198,0.1731727931261062,0.2964098751544952,-0.712761402130127,0.9476174712181092,walking
1783090568863388400,1.405388427734375,1.4109005248859523,-0.850884715424478,0.0845750567406415,0.2277415990829467,-0.7032403349876404,0.9866854548454284,walking
1783090568873432300,1.415432373046875,1.681209019509703,-0.5020362064406275,0.0625853432506322,0.1543212682008743,-0.6921687722206116,1.0574674606323242,walking
1783090568883477200,1.425477294921875,1.9190940849125384,-0.3125286568462848,-0.0106201782137155,0.1212626546621322,-0.6704668998718262,1.1317696571350098,walking
1783090568893521400,1.435521484375,1.979009916692972,-0.3670611881531774,-0.0250678057610988,0.1215816661715507,-0.620418131351471,1.1860322952270508,walking
1783090568903566300,1.44556640625,1.9946267341502009,-0.6091748310364783,0.0014648118555545,0.1198442205786705,-0.5549145340919495,1.2235522270202637,walking
1783090568913610200,1.4556103515625,2.1242074921786784,-0.8158630864039063,0.0611561872303485,0.1070517525076866,-0.4848372340202331,1.2326570749282837,walking
1783090568923655200,1.4656552734375,2.064940479695797,-0.9462110294125974,-0.0056482350200414,0.0784656479954719,-0.3984339237213135,1.225152850151062,walking
1783090568933699300,1.47569921875,1.9413159997232257,-0.9661527243316173,-0.0356990898907184,0.0558421984314918,-0.3170479536056518,1.2175571918487549,walking
1783090568943744300,1.485744140625,1.86202195212543,-0.9224573749899864,-0.004511339944601,0.0512543730437755,-0.249806597828865,1.2141169309616089,walking
1783090568953788200,1.4957880859375,1.6883661977879705,-0.765217479532957,-0.076575290158391,0.0548280514776706,-0.1822350025177002,1.2254369258880615,walking
1783090568963832300,1.505832275390625,1.4854112837299704,-0.6491331858068704,-0.2206435693532228,0.043432917445898,-0.1042595133185386,1.2466511726379397,walking
1783090568973877200,1.515877197265625,1.219320991323143,-0.7227098786711692,-0.2902478514552116,0.0048637939617037,-0.0298597477376461,1.2628912925720217,walking
1783090568983921400,1.52592138671875,1.0137610823985188,-0.9382438499256968,-0.3646785308003425,-0.0334843955934047,0.0321951024234294,1.2508143186569214,walking
1783090568993966300,1.53596630859375,0.8294448909021913,-1.1965253682777286,-0.4999971018284559,-0.0523967444896698,0.0962364375591278,1.2054293155670166,walking
1783090569004010200,1.54601025390625,0.5350337092224509,-1.3617875344097614,-0.5713491043806076,-0.0486526079475879,0.1592196673154831,1.1413416862487793,walking
1783090569014055200,1.55605517578125,0.6220448340035974,-1.4108540553957225,-0.294721197476983,-0.0394919998943805,0.1368760466575622,1.0760468244552612,walking
1783090569024099300,1.566099365234375,1.0169915887523442,-1.3308286247834562,0.0890080707520246,-0.0342506319284439,0.0790689438581466,1.0172247886657717,walking
1783090569034144500,1.57614453125,1.1494571084368974,-1.1734405530273917,-0.1690349626690149,-0.0497568435966968,0.0258866064250469,0.9726936221122742,walking
1783090569044188200,1.586188232421875,1.3403227215766906,-0.9761132695928216,-0.4771639232516289,-0.0726709440350532,-0.0372875705361366,0.935291349887848,walking
1783090569054233300,1.5962333984375,1.4426856562033294,-0.7559513462767005,-0.6814952402293681,-0.0580318719148635,-0.1416012793779373,0.9067081809043884,walking
1783090569064277500,1.606277587890625,1.7216677250176666,-0.6240782395273446,-0.7509200741112232,0.0135198095813393,-0.3183832466602325,0.8908368349075317,walking
1783090569074322200,1.616322265625,2.0694132411956785,-0.6748810827866196,-0.697868282881379,0.1199224740266799,-0.5459151268005371,0.8512534499168396,walking
1783090569084366300,1.626366455078125,2.168323112758994,-0.955067558954656,-0.6894552593231201,0.230781078338623,-0.7413679957389832,0.7663121819496155,walking
1783090569094411300,1.636411376953125,1.8814473680853845,-1.4160197675958277,-0.8439210138916968,0.3078497946262359,-0.8521544337272644,0.637599527835846,walking
1783090569104455200,1.646455078125,1.3667958640910685,-1.7699086088344451,-1.2450281179010867,0.3367336392402649,-0.838499903678894,0.4952466189861297,walking
1783090569114500400,1.656500244140625,1.068036570204422,-1.7017337750136852,-1.7404489978551865,0.3358985185623169,-0.7098354697227478,0.3899183869361877,walking
1783090569124544300,1.666544189453125,0.9729892923533916,-1.2851347951009868,-2.0866467000693083,0.3298105299472809,-0.515624463558197,0.3442393243312835,walking
1783090569134589200,1.676589111328125,0.9298382790215312,-0.7609934320971369,-2.2112042231082913,0.3314502239227295,-0.317624032497406,0.3464528322219848,walking
1783090569144633300,1.68663330078125,0.8898841620348393,-0.2909294039785862,-2.062097949746251,0.3336973786354065,-0.1635564416646957,0.3652028143405914,walking
1783090569154678300,1.69667822265625,0.9215740162841976,0.0111170218199491,-1.7026596576869486,0.3469433486461639,-0.1028523668646812,0.3828649818897247,walking
1783090569164722200,1.70672216796875,0.9433660152450204,0.1793820230297744,-1.4307827447026966,0.3723200857639313,-0.0887914076447486,0.3993465006351471,walking
1783090569174767400,1.716767333984375,0.6784199244372546,0.2186959424167871,-1.2550848170131443,0.3859004378318786,-0.1036127582192421,0.4146985113620758,walking
1783090569184811300,1.726811279296875,0.3260745132483542,0.0329777021028101,-1.00648765732944,0.4023649096488952,-0.1402306854724884,0.431302011013031,walking
1783090569194856400,1.7368564453125,0.0449785210199654,-0.1896950349904596,-0.6572516103327274,0.448884904384613,-0.2066107243299484,0.4570111334323883,walking
1783090569204900400,1.746900390625,-0.1943451988838613,-0.2245958141103387,-0.2795399949580431,0.5191500186920166,-0.2928459942340851,0.4929411709308624,walking
1783090569214944300,1.7569443359375,-0.315919906719774,-0.1566245400376617,0.052826165780425,0.6026243567466736,-0.3866450488567352,0.5360668301582336,walking
1783090569224989400,1.766989501953125,-0.3401654363125562,0.107864454652369,0.2850169650644064,0.6921066045761108,-0.4717652499675751,0.6007089614868164,walking
1783090569235033300,1.777033447265625,-0.2618665372319519,0.6122228204302489,0.3978893110066652,0.7678802013397217,-0.537074625492096,0.6810370683670044,walking
1783090569245078300,1.787078369140625,-0.1936110393904149,1.1811181019179522,0.3903711904615163,0.8081032633781433,-0.5645003914833069,0.7859821319580078,walking
1783090569255122200,1.7971220703125,-0.0550206070847809,1.776092704296857,0.5302367572695017,0.804702639579773,-0.5779666304588318,0.9290859699249268,walking
1783090569265167400,1.80716748046875,0.1794393061749637,2.2548462348274887,0.7924591222018003,0.768316924571991,-0.6261594295501709,1.0908671617507937,walking
1783090569275211300,1.817211181640625,0.3157007110111415,2.438384793014824,1.155346677932143,0.7013347744941711,-0.734495997428894,1.2221801280975342,walking
1783090569285256400,1.82725634765625,0.1613607747793197,2.2573928505703806,1.6102490850150584,0.6086381673812866,-0.8793557286262512,1.3090711832046509,walking
1783090569295300400,1.83730029296875,-0.1782166325122118,1.757825956852734,1.9619494762986895,0.522930383682251,-1.0323870182037354,1.3427445888519287,walking
1783090569305345300,1.84734521484375,-0.6195616388857365,1.1561416277021168,2.029609054073691,0.4626888632774353,-1.1636353731155396,1.318354249000549,walking
1783090569315389400,1.857389404296875,-0.9006599692016839,0.5642844266913831,1.795266045191884,0.4272215366363525,-1.2311872243881226,1.2544249296188354,walking
1783090569325434000,1.86743408203125,-1.099493273285031,0.146535253830254,1.05788700517714,0.4279685616493225,-1.2057968378067017,1.1759679317474363,walking
1783090569335478300,1.877478271484375,-1.2216447580955925,-0.1131511628836393,-0.0447147555172443,0.4719509780406952,-1.0802422761917114,1.089248776435852,walking
1783090569345523500,1.8875234375,-1.3629641769737004,-0.4309595136985182,-1.1659522430986164,0.5457133650779724,-0.8743487596511841,0.9896292686462402,walking
1783090569355567000,1.897567138671875,-1.5474043601758778,-0.8413165304817258,-1.840992023578286,0.6284416913986206,-0.6566547155380249,0.8741660118103027,walking
1783090569365612300,1.9076123046875,-1.6995310042724012,-1.222328502576053,-2.1784248200565575,0.7135464549064636,-0.4176065027713775,0.7497708201408386,walking
1783090569375656400,1.917656494140625,-1.8137145789436997,-1.3495640126526356,-2.1622201197087763,0.7614488005638123,-0.2388340383768081,0.6397293210029602,walking
1783090569385701000,1.927701171875,-1.937509008655697,-1.388162915638089,-1.7024924844264984,0.7671210765838623,-0.0852633938193321,0.5620222687721252,walking
1783090569395745300,1.937745361328125,-2.0273345332704484,-1.2455949580036103,-1.381943018209934,0.7426037192344666,0.0397088229656219,0.5240412354469299,walking
1783090569405790200,1.947790283203125,-1.706528169683367,-0.863453105096519,-0.8664590089142322,0.7137140035629272,0.0940530225634574,0.5242862701416016,walking
1783090569415834000,1.957834228515625,-1.0535318787075578,-0.387400942479074,-0.3528139054834842,0.7028006911277771,0.1200464591383934,0.5711853504180908,walking
1783090569425879300,1.96787939453125,-0.581890226008743,0.1867921531558036,-0.1133621752858161,0.6782248020172119,0.1478967368602752,0.6612572073936462,walking
1783090569435923500,1.97792333984375,0.0796748636089265,0.851706407070905,0.0829021550923585,0.6189115047454834,0.1910306513309478,0.8026681542396545,walking
1783090569445968400,1.987968505859375,0.9131528094194828,1.348973937804997,0.4131991083413362,0.5372294187545776,0.2094514667987823,0.9677910804748536,walking
1783090569456012300,1.99801220703125,1.4698073257543145,1.299896018642187,0.7366366972148418,0.4807049632072449,0.1891387552022934,1.1047394275665283,walking
1783090569466056400,2.008056396484375,1.5431334048584102,1.0983659497555345,0.8975865531057119,0.4822408258914947,0.1274109482765197,1.226726531982422,walking
1783090569476101400,2.018101318359375,1.2774664524301886,0.8774799499485642,1.1046119314730167,0.5456094145774841,0.0384190268814563,1.3300868272781372,walking
1783090569486145300,2.028145263671875,0.946586584726721,0.6321877500943839,1.2224205647736788,0.6256288886070251,-0.0491057597100734,1.4091196060180664,walking
1783090569496190200,2.038190185546875,0.9015098640292882,0.4811815613951534,1.362002638465166,0.6685674786567688,-0.1264653801918029,1.46279776096344,walking
1783090569506234400,2.048234375,0.8423081718675792,0.2421364392369985,1.525373584023118,0.6581587791442871,-0.2008818238973617,1.4828577041625977,walking
1783090569516279300,2.058279296875,0.4880668639294803,-0.1345507284607738,1.5040671766221525,0.6019362211227417,-0.2354037463665008,1.4719220399856567,walking
1783090569526323200,2.0683232421875,-0.0859746944054961,-0.4932905168619007,1.3955658853709696,0.5270377397537231,-0.2483078241348266,1.4459195137023926,walking
1783090569536368400,2.078368408203125,0.0111062081649899,-0.6617310207691043,1.3253911099046467,0.482616513967514,-0.2940497398376465,1.4185091257095337,walking
1783090569546412300,2.088412353515625,0.5444336249262094,-0.6847434283703565,1.119922897851467,0.4724456369876861,-0.319894403219223,1.3759393692016602,walking
1783090569556457200,2.098457275390625,0.6644622723639011,-0.7956663207452743,0.4516390213727951,0.4408433437347412,-0.2280693501234054,1.3076976537704468,walking
1783090569566501400,2.10850146484375,0.510168659491837,-0.9143657654058188,-0.1345814889252185,0.3829395473003387,-0.0201521087437868,1.2617698907852173,walking
1783090569576546300,2.11854638671875,0.120856038172543,-0.7712995028603822,-0.5041138894975186,0.2983346879482269,0.2455500364303589,1.265834093093872,walking
1783090569586590200,2.128590087890625,0.2130838016234338,-0.400380762496218,-0.2183054817944765,0.2052239328622818,0.4316069781780243,1.3341501951217651,walking
1783090569596635400,2.138635498046875,0.8543287183985113,-0.2814346495982259,0.3106090869605541,0.1287624835968017,0.5270516276359558,1.36871075630188,walking
1783090569606679300,2.14867919921875,0.8744308645762503,-0.8072855929989368,0.4062596644669771,0.0542224682867527,0.590238094329834,1.3308097124099731,walking
1783090569616724200,2.15872412109375,0.4016944023780524,-1.5302077261812983,0.4569382968246936,-0.0176306013017892,0.5968112945556641,1.238072633743286,walking
1783090569626768400,2.168768310546875,0.2691569865010678,-1.9853186614483591,0.7706915270298719,-0.0274206474423408,0.5008552074432373,1.156930923461914,walking
1783090569636813300,2.178813232421875,0.3857541981853544,-2.1755252992227674,1.0855459964752197,0.025630097836256,0.3337116539478302,1.096145749092102,walking
1783090569646857200,2.188857177734375,0.3324335268862545,-2.153763695400208,1.3380676361262798,0.0880822911858558,0.1292421370744705,1.0298519134521484,walking
1783090569656902400,2.19890234375,0.2047190011210739,-2.2239684276133773,1.3475503347426652,0.146941602230072,-0.0450590960681438,0.92572683095932,walking
1783090569666946300,2.2089462890625,0.0852532482631504,-2.1853660174965857,1.2102858903437852,0.209095299243927,-0.1794324219226837,0.8328291773796082,walking
1783090569676991200,2.2189912109375,0.0699938659414649,-1.9974302472636103,0.9610030864834784,0.2744265496730804,-0.2739242613315582,0.7754879593849182,walking
1783090569687035400,2.229035400390625,0.1506067410528659,-1.5791130652561782,0.6088654728263616,0.3312320411205292,-0.3298951089382171,0.7844215035438538,walking
1783090569697080300,2.239080322265625,0.2164787047587335,-1.2791323398157954,0.5257552279412746,0.3789684176445007,-0.3917869031429291,0.8018951416015625,walking
1783090569707124200,2.249124267578125,0.1744046730086207,-1.5713538294315337,0.5489958182752132,0.403608500957489,-0.4807122349739074,0.7829957604408264,walking
1783090569717168400,2.25916845703125,0.1501869082055985,-1.9149493863232432,0.577446836733818,0.4155431091785431,-0.6005335450172424,0.7423248887062073,walking
1783090569727213300,2.26921337890625,0.3458433358184993,-1.834017654521018,0.4354775756448507,0.4334304928779602,-0.706740140914917,0.7157063484191895,walking
1783090569737257200,2.27925732421875,0.6278558583699166,-1.6730616611503064,0.0148673142641782,0.466183453798294,-0.7597000002861023,0.6752904653549194,walking
1783090569747302400,2.289302490234375,0.8371217091403901,-1.7753902551159262,-0.4415916746109724,0.4859912693500519,-0.7553398609161377,0.587599515914917,walking
1783090569757346800,2.299346923828125,0.8214690897174179,-1.8323028134271504,-0.8127414472520351,0.4699242711067199,-0.74615478515625,0.4933526217937469,walking
1783090569767392000,2.30939208984375,0.3778878487244248,-1.4230822533279657,-0.8900134875029325,0.4132636487483978,-0.745401918888092,0.4021103084087372,walking
1783090569777436000,2.319435791015625,-0.8270020277947187,-1.4562690681368111,-1.1111702670753,0.357168972492218,-0.5594150424003601,0.3197272419929504,walking
1783090569787480800,2.329480712890625,-2.15163428215608,-0.9779676652878524,-1.9580127213716505,0.3409125208854675,-0.2173078060150146,0.3490718007087707,walking
1783090569797525000,2.33952490234375,-2.302907232032716,0.8235851320233195,-2.857759667381644,0.3571012914180755,0.2146764248609542,0.6392580270767212,walking
1783090569807569700,2.349569580078125,-0.2953318767212331,3.116029203034937,-3.8466315885215994,0.3373768329620361,0.6983906030654907,1.023240089416504,walking
1783090569817613800,2.35961376953125,1.6464128698080778,3.6056601014107463,-4.581866602244973,0.2456244677305221,1.0928419828414917,1.2040656805038452,walking
1783090569827659000,2.369658935546875,2.0779563208743927,2.017038472444564,-4.221332916164398,0.1609551161527633,1.3027031421661377,1.1803606748580933,walking
1783090569837702700,2.37970263671875,1.7051169877111911,1.572789415192604,-3.2331396249383686,0.158488243818283,1.388620376586914,1.2538801431655884,walking
1783090569847747800,2.389747802734375,0.6259893338456749,1.6589111168533563,-2.5740572920471427,0.24019855260849,1.4002629518508911,1.3081293106079102,walking
1783090569857792000,2.3997919921875,-0.639645664884895,0.32828071805574,-1.1031231542199849,0.359085738658905,1.3343948125839231,1.238377332687378,walking
1783090569867837000,2.4098369140625,-1.5331393957190214,-0.5574135910738259,0.4700812715142965,0.4128011763095855,1.177133560180664,1.0659242868423462,walking
1783090569877880800,2.419880859375,-0.9497484097585082,-0.5276267939668149,2.1855103944033383,0.3652530908584595,0.8670055270195007,0.9027891755104064,walking
1783090569887925800,2.42992578125,-0.3666800068158656,0.0318767551235854,2.987933276736736,0.2226197868585586,0.6236141324043274,0.7440349459648132,walking
1783090569897969700,2.4399697265625,-0.9237593974992632,0.3036804932737723,1.92334297452867,0.0266276225447654,0.5884739756584167,0.6119282245635986,walking
1783090569908014800,2.450014892578125,-0.9893633579187094,0.2262922062320634,0.7760814033746719,-0.0958234593272209,0.5675694942474365,0.5395933389663696,walking
1783090569918058800,2.460058837890625,0.0027707068223506,0.0770522600203752,-0.0079284549117088,-0.0864429399371147,0.5070077776908875,0.4785143136978149,walking
1783090569928104000,2.47010400390625,0.9316502968795596,-0.0540137681297957,-1.0369628750920294,-0.0222602300345897,0.4478360712528229,0.4196227788925171,walking
1783090569938147800,2.48014794921875,1.3917182700321078,0.0001159545298665,-1.9598855295062063,0.0341107584536075,0.3980334997177124,0.4080342948436737,walking
1783090569948192800,2.49019287109375,1.526216172327101,0.3139514561910182,-2.076793999096751,0.102173164486885,0.2638437449932098,0.4463193714618683,walking
1783090569958237000,2.50023681640625,1.6153554682433604,0.6315731983926147,-1.6614268990665673,0.1818644106388092,0.1356283724308014,0.5141708254814148,walking
1783090569968281900,2.51028173828125,1.3819456485584378,0.5153396323889493,-0.6660200231999158,0.2493012398481369,-0.0694273188710212,0.5789604783058167,walking
1783090569978325800,2.52032568359375,1.5411957147940991,0.3348422685284167,0.6521311985790729,0.2968152165412903,-0.30892014503479,0.6486198902130127,walking
1783090569988371000,2.530370849609375,1.5098089351445436,0.2664061168903485,1.3712737401574848,0.304384708404541,-0.5157079696655273,0.7048919796943665,walking
1783090569998414800,2.540414794921875,1.5768375215396284,0.3236269374331459,1.776071515378356,0.2847834527492523,-0.6849349141120911,0.7844429612159729,walking
1783090570008458800,2.550458740234375,1.65992087841779,0.6910571415618062,1.9409218858391049,0.2576570510864258,-0.83952796459198,0.9005706310272217,walking
1783090570018504000,2.56050390625,1.699264462290704,1.0830943655394016,1.8233470612943172,0.2406216710805893,-0.9363641142845154,1.0388256311416626,walking
1783090570028547800,2.5705478515625,1.7292907672420144,1.3304333418555556,1.3886825555980205,0.2209185361862182,-0.9466644525527954,1.1719253063201904,walking
1783090570038592800,2.5805927734375,1.7948045651599764,1.6460181714020667,0.86252809920609,0.2110452055931091,-0.8760327696800232,1.297372817993164,walking
1783090570048637000,2.590636962890625,1.891292324142903,1.6479561537273226,0.7033312244623899,0.2097426503896713,-0.741044819355011,1.4282937049865725,walking
1783090570058681600,2.600681640625,1.8537733253486453,1.3246229020111262,0.9101958593100308,0.178156167268753,-0.5968167185783386,1.524336814880371,walking
1783090570068725800,2.610725830078125,1.728450224764645,0.9078196316979824,1.194683832064271,0.1111859157681465,-0.480369508266449,1.5622519254684448,walking
1783090570078771000,2.62077099609375,1.5711496851615607,0.672341189045459,1.1673106719702482,0.090827077627182,-0.4177221059799194,1.5756200551986694,walking
1783090570088814800,2.63081494140625,1.2946639632076025,0.4908583578115328,0.7360971835106611,0.1811889261007309,-0.3542429804801941,1.5662657022476196,walking
1783090570098859800,2.64085986328125,1.0469235664837062,0.2161385860841721,0.3152373312830925,0.3174948096275329,-0.2961040735244751,1.5366767644882202,walking
1783090570108904000,2.650904052734375,1.0237016808502375,-0.0617900281544774,0.1915326256811618,0.4019492268562317,-0.2650191187858581,1.497066855430603,walking
1783090570118948900,2.660948974609375,1.097432833623886,-0.2971377936320379,0.093489015558362,0.391317754983902,-0.1966458857059478,1.4441834688186646,walking
1783090570128992800,2.67099267578125,1.2195346340738236,-0.4694419506974518,-0.0346317529201507,0.2857258021831512,-0.0902552679181099,1.3808971643447876,walking
1783090570139038000,2.681037841796875,1.2902875016890465,-0.466144041663222,0.1054378120273351,0.1424966305494308,0.0160715673118829,1.327854037284851,walking
1783090570149081900,2.691081787109375,1.2302375221349298,-0.4156969165064394,0.3498831127285957,0.0246879681944847,0.11145880818367,1.2912906408309937,walking
1783090570159126800,2.701126708984375,1.1962845452591775,-0.4242078109486028,0.540174798437953,-0.0518534258008003,0.1738907843828201,1.2689704895019531,walking
1783090570169171000,2.7111708984375,1.0845574238292872,-0.3981734982429072,0.6287678586483001,-0.1008848845958709,0.2071635127067566,1.2726384401321411,walking
1783090570179216000,2.7212158203125,1.005842637424171,-0.4029626322155818,0.6577402706325054,-0.1333902925252914,0.2230411916971206,1.2871251106262207,walking
1783090570189259800,2.731259765625,0.98898444160372,-0.4535904111688956,0.6793535520255565,-0.163289338350296,0.2006413489580154,1.3081302642822266,walking
1783090570199304700,2.7413046875,1.0805787294566631,-0.4561431278590113,0.7499550284713506,-0.1891908198595047,0.1486428380012512,1.3213566541671753,walking
1783090570209348900,2.751348876953125,1.1087354411438106,-0.4613287138033658,0.6971785470515489,-0.2148178815841674,0.1121908202767372,1.321760654449463,walking
1783090570219393800,2.761393798828125,1.1169691626124083,-0.4945888130441307,0.5575561413496732,-0.2621439695358276,0.1015622615814209,1.329203963279724,walking
1783090570229438000,2.77143798828125,1.113781618617475,-0.5480797994088381,0.3849620248943567,-0.3054879903793335,0.0941272526979446,1.3417330980300903,walking
1783090570239483000,2.78148291015625,1.164345392423868,-0.6145457104198634,0.1451665958255529,-0.3243745565414428,0.1087964847683906,1.362552285194397,walking
1783090570249526800,2.79152685546875,1.1074693667307496,-0.709244467094168,0.0431125810176134,-0.3406786918640136,0.1071759462356567,1.3960905075073242,walking
1783090570259571700,2.80157177734375,0.9454337614297866,-0.8477952249765396,0.0267190800994634,-0.3515133261680603,0.1037830486893653,1.4437938928604126,walking
1783090570269615900,2.811615966796875,0.8144996890962123,-0.8364944440875202,-0.0246790987044572,-0.346754252910614,0.0976937338709831,1.5122355222702026,walking
1783090570279659800,2.82165966796875,0.7537624579302966,-0.7202437808185815,-0.0027770634979009,-0.3211140930652618,0.0869531482458114,1.5749680995941162,walking
1783090570289704700,2.83170458984375,0.7719348050892353,-0.488213359728083,-0.0267909762918949,-0.268203467130661,0.0689533725380897,1.6452182531356812,walking
1783090570299748900,2.841748779296875,0.7405276402387767,-0.1710875843498855,-0.1382961255341768,-0.2242243289947509,0.1057225465774536,1.7274025678634644,walking
1783090570309794000,2.8517939453125,0.5570890352945774,-0.0039312750343233,-0.4069488157749176,-0.2140880674123764,0.1807845532894134,1.8116306066513064,walking
1783090570319837700,2.861837646484375,0.7264245883453637,-0.0691910981912165,-0.6836392665207386,-0.2122658640146255,0.2789155840873718,1.8596283197402952,walking
1783090570329883000,2.8718828125,0.8715048941269516,-0.1373018537998199,-1.016439727023244,-0.2004315853118896,0.3948195576667785,1.8610297441482544,walking
1783090570339927000,2.881927001953125,0.7977714032657444,-0.1838780192747712,-1.2002800446361304,-0.1892963945865631,0.5077534317970276,1.819210171699524,walking
1783090570349971700,2.8919716796875,0.6645170712910592,-0.2929584255881607,-0.9911918885201216,-0.222120389342308,0.5481309294700623,1.746435284614563,walking
1783090570360016000,2.902015869140625,0.6638827189102768,-0.3775688459031283,-0.462083258497715,-0.27597776055336,0.5122713446617126,1.6473008394241333,walking
1783090570370060800,2.912060791015625,0.3965347545925528,-0.4459128988109528,-0.2924117514908314,-0.2877734303474426,0.42954021692276,1.534024000167847,walking
1783090570380104700,2.922104736328125,0.2407335867017507,-0.6549065085113048,-0.1634445953160524,-0.2485893815755844,0.2887701392173767,1.4176690578460691,walking
1783090570390150000,2.93214990234375,0.1778003798615187,-0.940921836963296,-0.0574228459209203,-0.1901769489049911,0.1226599812507629,1.2751997709274292,walking
1783090570400194000,2.942194091796875,0.1919488052666187,-1.1719093979373574,0.0246609785258769,-0.1361284703016281,-0.0500118844211101,1.1221650838851929,walking
1783090570410238700,2.95223876953125,0.0706421007171273,-1.3674853076599538,0.0943739816993474,-0.0875193998217582,-0.2023742645978927,0.962325394153595,walking
1783090570420283000,2.962282958984375,-0.0334597865313291,-1.4501324650779366,0.1448836872309446,-0.0313403122127056,-0.3312839865684509,0.8125627040863037,walking
1783090570430327800,2.972327880859375,0.0140029525198042,-1.4566848093308506,0.2287491343975067,-0.0035478291101753,-0.4339166283607483,0.6931505799293518,walking
1783090570440371700,2.982371826171875,0.1187128886640071,-1.453475638025999,0.2761538596510887,0.0145560223609209,-0.5306309461593628,0.6031803488731384,walking
1783090570450417000,2.9924169921875,0.0983467577878385,-1.529728272101283,0.342595878329873,0.0445498749613761,-0.6274522542953491,0.5346936583518982,walking
1783090570460460800,3.002460693359375,0.0789892924975603,-1.6626831827379762,0.2333738715887069,0.0490449182689189,-0.7009856700897217,0.4819197952747345,walking
1783090570470506000,3.012506103515625,0.3383041724853217,-1.6803139703661203,0.2018120276331901,0.0407595559954643,-0.7599744200706482,0.4529320895671844,walking
1783090570480550000,3.0225498046875,0.6889510361280292,-1.5808140239551662,0.1778507218092679,0.063543401658535,-0.8055267333984375,0.4205320477485657,walking
1783090570490594800,3.0325947265625,0.7750377395406365,-1.532429347753525,-0.0713619394242763,0.1007522940635681,-0.7895890474319458,0.3938889801502228,walking
1783090570500638700,3.042638671875,0.9178792534194886,-1.442176099245995,-0.0637397739827632,0.1022697985172271,-0.7554499506950378,0.3942315876483917,walking
1783090570510683600,3.05268359375,1.0985000975292176,-1.2429558416716753,0.0916302359491586,0.1034040376543998,-0.7112233638763428,0.4167092144489288,walking
1783090570520727800,3.062727783203125,1.2392869439005851,-1.1337561928927895,0.1515583426892757,0.1173526421189308,-0.6699214577674866,0.4558649957180023,walking
1783090570530773000,3.07277294921875,1.3310969203308225,-1.0777443828135729,0.0893833338052034,0.1340812891721725,-0.6150302290916443,0.5016719102859497,walking
1783090570540817000,3.08281689453125,1.337421739438176,-0.9836220377877354,-0.1662923859626054,0.1214221715927124,-0.5210350751876831,0.5600231289863586,walking
1783090570550861800,3.09286181640625,1.350480835236609,-0.8759894921950996,-0.3792144211530685,0.0812505185604095,-0.4487388134002685,0.6283832788467407,walking
1783090570560906000,3.102906005859375,1.5370612453378736,-0.8831111607685684,-0.5835445690870285,0.0780036076903343,-0.3980326950550079,0.6627932786941528,walking
1783090570570950000,3.112949951171875,1.271417235393822,-1.0078345418937504,-1.0633727431118487,0.1260920315980911,-0.3205775916576385,0.6659637689590454,walking
1783090570580994800,3.122994873046875,1.083418775188178,-1.141965510572493,-1.3827549191147088,0.1842545866966247,-0.2317133247852325,0.6623513698577881,walking
1783090570591039000,3.1330390625,0.9772223998785018,-1.1279853544063865,-1.427902805352211,0.2081695050001144,-0.1488991230726242,0.6620882153511047,walking
1783090570601083600,3.143083740234375,0.9998476347930728,-1.0123438360117376,-1.3404396259546278,0.2039758265018463,-0.0563042201101779,0.6456546783447266,walking
1783090570611127800,3.1531279296875,0.9926932329937816,-0.9675630295209586,-1.2653905224502089,0.1901420354843139,0.0602506250143051,0.5913421511650085,walking
1783090570621173000,3.163173095703125,0.9481681548297404,-0.920424261727184,-1.1664262903511524,0.1761822700500488,0.1903431117534637,0.5187627673149109,walking
1783090570631216600,3.173216552734375,0.9106959177866576,-0.7625247333176434,-0.938627588546276,0.1536263674497604,0.3047359883785248,0.4473730027675628,walking
1783090570641261800,3.18326171875,0.8678720905825495,-0.4806486966274678,-0.7315110247641802,0.1222676560282707,0.368679016828537,0.4046918451786041,walking
1783090570651306000,3.193305908203125,0.8677350201994181,-0.3240278098516166,-0.6070680680155753,0.0966243371367454,0.3741222620010376,0.3872795701026916,walking
1783090570661350700,3.2033505859375,0.8676939575366676,-0.3306149331569671,-0.5072457577824593,0.0885053053498268,0.3284485340118408,0.3918156921863556,walking
1783090570671394800,3.213394775390625,0.819002553473413,-0.4357946787700056,-0.594714782398939,0.0595306493341922,0.2813350856304168,0.4096362292766571,walking
1783090570681440000,3.22343994140625,0.8219532199725508,-0.5989861761078238,-0.6288362477093935,0.0225301850587129,0.2488991022109985,0.4188291132450104,walking
1783090570691483600,3.233483642578125,0.9409194988757372,-0.7516279301196336,-0.4760264436542987,0.0173769686371088,0.2062938511371612,0.4335803687572479,walking
1783090570701528800,3.24352880859375,0.8553950324557721,-0.879612358867377,-0.3716729197323322,0.0525555573403835,0.1469175517559051,0.462022602558136,walking
1783090570711573000,3.253572998046875,0.8058868321169167,-0.946358913450688,-0.2834948700636625,0.1150386407971382,0.0611829310655593,0.5056856870651245,walking
1783090570721618000,3.263617919921875,0.7645931370895356,-0.7679961504660546,-0.1339034435331821,0.1899935156106948,-0.0400567725300788,0.5697135925292969,walking
1783090570731661800,3.273661865234375,0.6181520643487572,-0.603905804592371,0.087298928746581,0.2733360826969147,-0.1642109453678131,0.6585187911987305,walking
1783090570741706800,3.283706787109375,0.4888821258351206,-0.4334229812026023,0.3693254798233509,0.3862153887748718,-0.3080644607543945,0.7659449577331543,walking
1783090570751751000,3.2937509765625,0.5205496951874345,-0.1272488079495728,0.6696405517846346,0.4986210465431213,-0.4563953280448913,0.8800933361053467,walking
1783090570761795600,3.303795654296875,0.7400147222805767,0.379812094785273,0.8829267441123724,0.5545583963394165,-0.595227837562561,0.9854242205619812,walking
1783090570771839700,3.31383984375,1.0720976090982557,0.9568152794048188,1.099288690623641,0.5473715662956238,-0.7217426896095276,1.0860674381256104,walking
1783090570781884700,3.323884765625,1.2648708824902772,1.5303085562072694,1.2894254780322312,0.5221513509750366,-0.8416509032249451,1.212682843208313,walking
1783090570791928600,3.333928466796875,1.188802957332134,1.899488051688671,1.4436509941041469,0.5015877485275269,-0.9504181742668152,1.3504124879837036,walking
1783090570801973500,3.343973388671875,0.9992845940828324,1.951366707485914,1.666853015768528,0.4857345223426819,-1.063953518867493,1.4792702198028564,walking
1783090570812017700,3.354017578125,0.7397823017641901,1.8051748602658508,1.6843121000915764,0.4909135699272156,-1.158453106880188,1.5803587436676023,walking
1783090570822061600,3.3640615234375,0.4368373196907341,1.6221249623782932,1.502405965411663,0.5112454891204834,-1.1819475889205933,1.644718050956726,walking
1783090570832106500,3.3741064453125,0.1010325628057122,1.418213770508766,1.1013485457628964,0.5087205767631531,-1.09200918674469,1.6706076860427856,walking
1783090570842150700,3.384150634765625,-0.1830149727046489,1.253435296240449,0.4547217898190021,0.4693779945373535,-0.894780158996582,1.661040425300598,walking
1783090570852195600,3.394195556640625,-0.3021362960390746,1.0523403308354318,-0.1645055025458335,0.4073119461536407,-0.6230000257492065,1.6190288066864014,walking
1783090570862239500,3.404239501953125,-0.3450038162544369,0.7905893828071653,-0.9005383886486291,0.3496116697788238,-0.3304072022438049,1.5255215167999268,walking
1783090570872284700,3.41428466796875,-0.3163243958674371,0.4393612852104008,-1.7481348761826752,0.3263585567474365,-0.0543825477361679,1.382128119468689,walking
1783090570882328600,3.42432861328125,-0.3089645346239209,0.0612812749147415,-2.655205296948552,0.3619073629379272,0.1874866932630539,1.2107882499694824,walking
1783090570892373500,3.43437353515625,-0.3869638662360608,-0.3653443012326955,-3.4771447806566953,0.4361743927001953,0.4222289025783539,1.030143141746521,walking
1783090570902417700,3.444417724609375,-0.5370433685444295,-0.6796042388509959,-3.869143280059099,0.4919566214084625,0.6022984981536865,0.8431380987167358,walking
1783090570912462600,3.454462646484375,-0.5297253006160259,-0.8708930458389222,-3.4737001931607723,0.4935728907585144,0.680330753326416,0.6615898609161377,walking
1783090570922506500,3.464506591796875,-0.3587126081332564,-0.9037830696582794,-2.622182732790709,0.4493639767169952,0.6885991096496582,0.494533896446228,walking
1783090570932551700,3.4745517578125,-0.2419594752348959,-0.6813944832686335,-1.6835574823319912,0.3980443477630615,0.6393338441848755,0.3637731969356537,walking
1783090570942595600,3.484595703125,-0.1923955261208116,-0.4977232386123388,-0.6518675792068243,0.3618986904621124,0.501228392124176,0.3036380410194397,walking
1783090570952640500,3.494640625,-0.2292300497822463,-0.2764575918380171,0.3570131107389926,0.3692165315151214,0.2923689186573028,0.3307106792926788,walking
1783090570962684700,3.5046845703125,-0.3059026628352701,0.0148031629867851,1.057771854364872,0.4232468903064728,0.0146703459322452,0.4498389065265655,walking
1783090570972729600,3.5147294921875,-0.2632461550220847,0.0164883395947515,1.481159179243445,0.501796543598175,-0.2875973880290985,0.5901963114738464,walking
1783090570982773500,3.5247734375,-0.1466420752055943,-0.3051750061478465,1.4935305850386618,0.5605667233467102,-0.5749308466911316,0.6912391781806946,walking
1783090570992818700,3.534818603515625,0.0157100486986339,-0.626567060668394,1.3322475516706704,0.5923987030982971,-0.7732266187667847,0.7334010004997253,walking
1783090571002862600,3.544862548828125,0.2729863355308771,-0.6646644438724965,1.1855249585747718,0.5767945051193237,-0.9176793098449708,0.7543700933456421,walking
1783090571012907500,3.554907470703125,0.6998400213457644,-0.7976410548843443,1.2311714419841766,0.5488006472587585,-1.037376880645752,0.7552648782730103,walking
1783090571022951700,3.56495166015625,0.9590174656242132,-0.8335514494381845,1.215633096590638,0.5501410365104675,-1.1390272378921509,0.7400431036949158,walking
1783090571032996600,3.57499658203125,0.9449034539453685,-0.8235692768670618,1.1657821472287178,0.5753081440925598,-1.1813318729400637,0.7003095149993896,walking
1783090571043040500,3.58504052734375,0.839335585797578,-0.8897196921881287,1.0941805538296698,0.60173499584198,-1.129459023475647,0.6355197429656982,walking
1783090571053085400,3.59508544921875,0.7856054569147527,-0.7161461362414061,1.0127379498958586,0.6196330785751343,-1.010279655456543,0.575982928276062,walking
1783090571063129600,3.605129638671875,0.7762257802814245,-0.3380047146147116,1.060807861059904,0.6139297485351562,-0.8363977074623108,0.5355185866355896,walking
1783090571073174500,3.615174560546875,0.6150954532571137,-0.0732811074512079,1.0318599989950656,0.5677872896194458,-0.6559022665023804,0.5282569527626038,walking
1783090571083218700,3.62521875,0.6088273327730596,0.1118245904549956,1.0616934117227792,0.5034672617912292,-0.4973537623882293,0.5495836734771729,walking
1783090571093263600,3.635263671875,0.713991442425549,0.1786536904889158,1.1063444543540475,0.4391860067844391,-0.364228218793869,0.5843496322631836,walking
1783090571103307500,3.6453076171875,0.8275897645547986,0.1515244586859829,1.2142203071832656,0.358440101146698,-0.2585677206516266,0.6118825674057007,walking
1783090571113351700,3.6553515625,1.0369301418662071,-0.0108415476131252,1.506954714757204,0.2649509012699127,-0.1788673102855682,0.6024195551872253,walking
1783090571123396600,3.665396728515625,0.9736933489695192,-0.3757867847919464,1.6950065125852822,0.1737647652626037,-0.1139907836914062,0.5157126188278198,walking
1783090571133440500,3.6754404296875,0.7330161686301231,-0.6508535067934542,1.674302747252583,0.1055332571268081,-0.0494895540177822,0.399548202753067,walking
1783090571143485400,3.6854853515625,0.3250771727740764,-0.6503613393623382,1.3724194030612706,0.0774145275354385,-0.0181427057832479,0.3108026683330536,walking
1783090571153529600,3.695529541015625,-0.0232356218978762,-0.6080343557644635,1.1152087288111447,0.125437706708908,-0.0521491430699825,0.253906637430191,walking
1783090571163574800,3.70557470703125,-0.2748503758370876,-0.8073864960901439,0.976287749376893,0.2193865329027176,-0.0928438454866409,0.1909362971782684,walking
1783090571173618400,3.715618408203125,-0.5245481902390718,-1.067374379968643,0.9779144737958908,0.2865621149539947,-0.1285155564546585,0.1147160977125167,walking
1783090571183663600,3.72566357421875,-0.6361018547981977,-1.087319143627584,0.8773767087697982,0.2889105081558227,-0.1418419033288955,0.0534327290952205,walking
1783090571193707800,3.735707763671875,-0.4187196253284811,-1.0582781233865768,0.8202297571808099,0.2597217261791229,-0.1919149309396743,0.018378872424364,walking
1783090571203752400,3.74575244140625,-0.0145718384489417,-1.044801459763199,0.6354413450628519,0.2594150006771087,-0.2528213560581207,0.0024864540901035,walking
1783090571213796600,3.755796630859375,0.3189019912704825,-1.1250590916961432,0.0988075802326202,0.2950281202793121,-0.26472008228302,-0.0085089392960071,walking
1783090571223841800,3.765841796875,0.4841001522555947,-1.2683689537391063,-0.4424474146574735,0.3186329007148742,-0.2230202257633209,-0.0241676438599824,walking
1783090571233885400,3.775885498046875,0.3753682671189308,-1.4897773699849843,-0.8507201725125312,0.2956061363220215,-0.1440404653549194,-0.0553354173898696,walking
1783090571243930600,3.7859306640625,0.0755205204084515,-1.8183090671271085,-1.0117483543366192,0.2372691482305526,-0.0441869832575321,-0.1081689521670341,walking
1783090571253974800,3.795974853515625,-0.2984571691349149,-2.2708698795199393,-0.9939198521792888,0.1888592690229416,0.0452347733080387,-0.1988501101732254,walking
1783090571264019500,3.80601953125,-0.7563713252544403,-2.482722531913221,-0.9426683883696794,0.1734508424997329,0.0924528390169143,-0.2910981178283691,walking
1783090571274063600,3.816063720703125,-0.785473501098156,-2.535299983629584,-0.786295923396945,0.1945617198944091,0.0563560798764228,-0.3746545314788818,walking
1783090571284108500,3.826108642578125,-0.9493225855618714,-2.635197404925525,-0.8376713058471679,0.2508308589458465,-0.0187036972492933,-0.4774457514286041,walking
1783090571294152400,3.83615234375,-1.7598706144228575,-2.8101322392880914,-1.581836645001173,0.3570941686630249,0.0340753644704818,-0.5789207220077515,walking
1783090571304197600,3.84619775390625,-2.358838962613046,-2.0332918342396615,-3.1965555689066645,0.4886017441749573,0.2465089112520218,-0.5141627788543701,walking
1783090571314241500,3.856241455078125,-1.6266101449683308,-0.8267205805048347,-4.476714621421695,0.5780168771743774,0.5025990009307861,-0.3173540830612182,walking
1783090571324286700,3.86628662109375,-0.5336263997077941,-0.1190295899303629,-4.716215451458096,0.6010363101959229,0.7398782968521118,-0.0978317037224769,walking
1783090571334330600,3.87633056640625,0.3921731253169477,0.5393288856657221,-4.547999403956532,0.5846471786499023,0.9683055877685548,0.1047893166542053,walking
1783090571344375600,3.88637548828125,1.1186745052255689,1.2036712945096193,-3.936418242430687,0.5292059779167175,1.1009341478347778,0.2735306322574615,walking
1783090571354419700,3.896419677734375,1.1189482076004147,1.2603469753250478,-2.681734407433867,0.4136822521686554,1.1444480419158936,0.3454439640045166,walking
1783090571364464600,3.906464599609375,0.4476240866430103,0.7817305151775479,-1.4459440734773874,0.2882992327213287,1.0611156225204468,0.3074817657470703,walking
1783090571374508500,3.916508544921875,-0.1043187448695301,0.1241514629887416,-0.0156564188152551,0.2122137993574142,0.7449464797973633,0.1866597384214401,walking
1783090571384552400,3.926552490234375,-0.4479672009922564,-0.5120602088594809,1.3708961390167471,0.1759266555309295,0.2256310731172561,0.0055485647171735,walking
1783090571394597600,3.93659765625,-1.139411296045035,-0.6922250893626362,1.9483248555719852,0.1175877079367637,-0.3088714778423309,-0.1846109926700592,walking
1783090571404641500,3.9466416015625,-2.003824039953947,-0.7043487309418618,2.104185279369354,0.0484559088945388,-0.8264032602310181,-0.3046836853027344,walking
1783090571414686700,3.956686767578125,-2.0350474457353354,-0.6291879837565124,2.0900684912115333,0.0411633774638175,-1.2880274057388306,-0.3351390659809112,walking
1783090571424730600,3.966730712890625,-1.8250801686972375,-0.3111410018801689,1.6453203983962534,0.0771103054285049,-1.598862648010254,-0.2924047708511352,walking
1783090571434775600,3.976775634765625,-1.429253343178332,0.1543134135510772,1.118942070120573,0.1302614063024521,-1.7031629085540771,-0.2372565418481826,walking
1783090571444819700,3.98681982421875,-0.6263403392404318,0.6086360845172777,0.6266150645285844,0.2074903696775436,-1.6359522342681885,-0.157197818160057,walking
1783090571456747500,3.99874755859375,0.1296694592252373,1.3631849801175295,0.2890402292311191,0.2762020528316498,-1.3843636512756348,0.0233985818922519,walking
1783090571466791700,4.008791748046875,-0.0311161460146307,2.2019141244545577,-0.0617781185209751,0.266331672668457,-1.066004514694214,0.2511655688285827,walking
1783090571476836600,4.018836669921875,0.1436380710840225,2.709883812597394,0.0969464625358581,0.2092145830392837,-0.7352973222732544,0.5021898150444031,walking
1783090571486880500,4.028880615234375,1.0438862446144224,2.8723414427027105,0.6886831059068441,0.0948226153850555,-0.4858202934265136,0.724628746509552,walking
1783090571496925700,4.03892578125,1.49698452488482,2.814058472821116,0.7370721660226583,-0.0809955447912216,-0.1901678591966629,0.8716490268707275,walking
1783090571506969600,4.048969482421875,1.277199325926602,2.191021851301193,0.3465525070011616,-0.2620845735073089,0.147873044013977,0.9461090564727784,walking
1783090571517014500,4.0590146484375,1.183191547191143,1.4319021041214466,-0.0951215851962566,-0.3465280830860138,0.4262125194072723,0.9911305904388428,walking
1783090571527058700,4.06905859375,1.187678629477322,0.9538527763374148,-0.6171241826057434,-0.3489393889904022,0.6491546034812927,0.9905781745910645,walking
1783090571537103600,4.079103515625,0.7391323134228587,0.3813444554517045,-0.8707634281098842,-0.3261142373085022,0.7994674444198608,0.9157931804656982,walking
1783090571547147500,4.0891474609375,0.1385688049957156,0.1082150216557085,-0.4360089060425758,-0.2696681022644043,0.8329201340675354,0.8603037595748901,walking
1783090571557192400,4.0991923828125,-0.0462605236545205,0.3787722668761387,0.3110936556071043,-0.1918249577283859,0.7872046232223511,0.8494188785552979,walking
1783090571567236600,4.109236572265625,0.1633545789450406,0.814338068793714,1.118223692718148,-0.131077840924263,0.6943342685699463,0.8629201650619507,walking
1783090571577281500,4.119281494140625,0.2928217935964465,1.1644512639511375,1.4714888491004705,-0.1086929067969322,0.6135467290878296,0.8526667356491089,walking
1783090571587325700,4.12932568359375,0.3575006019949913,1.0318211282894014,1.3370143276810644,-0.1501212269067764,0.5835369229316711,0.7938860058784485,walking
1783090571597370600,4.13937060546875,0.223569393672049,0.5027584928331896,0.8688789295375346,-0.2274346500635147,0.5606175065040588,0.7246819138526917,walking
1783090571607414500,4.14941455078125,0.2949284104868769,0.1438828944242559,0.1775835953056812,-0.2895382940769195,0.5301000475883484,0.6887921690940857,walking
1783090571617459500,4.15945947265625,0.4890878775402903,-0.0379956946616061,-0.68192077216506,-0.3153719305992126,0.4872976541519165,0.68294757604599,walking
1783090571627503600,4.169503662109375,0.7463017666608095,-0.1437015556411351,-1.3422417069405317,-0.326700210571289,0.4160884618759155,0.7035921216011047,walking
1783090571637548800,4.179548828125,0.923528803613782,-0.2606594995297491,-1.647630428904295,-0.3416687846183777,0.3609620928764343,0.7284963726997375,walking
1783090571647592400,4.189592529296875,0.9057143299818038,-0.638277006880194,-1.6684651271402835,-0.3724808394908905,0.3624379932880401,0.7371265888214111,walking
1783090571657636600,4.19963671875,0.5927103107087314,-1.067204868620634,-1.3934592684805391,-0.4047624766826629,0.3971202373504638,0.7292454838752747,walking
1783090571667681800,4.209681884765625,0.6410572852484882,-1.248261400733888,-0.7032055522561073,-0.3888841569423675,0.3731893301010132,0.7241964340209961,walking
1783090571677725400,4.219725341796875,1.0974053610950707,-1.11614557126984,0.1477145267426967,-0.3224323391914367,0.2884948551654815,0.7083476185798645,walking
1783090571687770600,4.2297705078125,1.1067436828047037,-0.8372184475131332,0.7647720738530158,-0.2670463323593139,0.186521902680397,0.6984609365463257,walking
1783090571697814800,4.239814697265625,0.9140240392960608,-0.559758181438595,1.2940671663582324,-0.2627266645431518,0.1058365553617477,0.7050729393959045,walking
1783090571707859500,4.249859375,0.5115136443600058,-0.3951510086165741,1.5932202088028191,-0.2907047867774963,0.0357453562319278,0.7317569851875305,walking
1783090571717903600,4.259903564453125,0.3884513283148407,-0.1996419535851105,1.7813427337795495,-0.3100099265575409,-0.0238944143056869,0.7916812896728516,walking
1783090571727948500,4.269948486328125,0.3021589462623,-0.0281165258072316,1.6812310852110386,-0.3097872734069824,-0.0715756490826606,0.8692578673362732,walking
1783090571737992400,4.279992431640625,0.2124294293679297,-0.0413803138649091,1.4037351633012294,-0.3028696477413177,-0.0995666161179542,0.9517269730567932,walking
1783090571748037600,4.29003759765625,0.3668279639191925,-0.3511296787235886,1.1665180602878331,-0.2921427190303802,-0.10149447619915,1.0099297761917114,walking
1783090571758081800,4.300081787109375,0.5836603044211864,-0.7005125137798488,0.8796697881430386,-0.2821964919567108,-0.1028641015291214,1.0441641807556152,walking
1783090571768127000,4.310126953125,0.8406852468408643,-1.0892334528163077,0.4827963761806488,-0.266497403383255,-0.0782738029956817,1.0438358783721924,walking
1783090571778171100,4.320171142578125,1.009407928690314,-1.5325259399957951,0.0697065734326839,-0.2421770244836807,-0.0341092087328434,1.0142415761947632,walking
1783090571788215800,4.3302158203125,1.01807901866287,-1.824401246522367,-0.1555646557211875,-0.208269402384758,0.0146202463656663,0.9657464623451232,walking
1783090571798260000,4.340260009765625,0.8349620468884706,-2.0963702217042446,-0.2163239525884389,-0.1755372136831283,0.0773313865065574,0.9199264645576476,walking
1783090571808305200,4.35030517578125,0.6729514298982918,-2.30641524015367,-0.0324900647163391,-0.1412021517753601,0.139386236667633,0.8763931393623352,walking
1783090571818976800,4.360976806640625,0.6020785891652107,-2.377203909734636,0.3008282821804285,-0.0982485637068748,0.1774998009204864,0.8372145891189575,walking
1783090571829021000,4.37102099609375,0.6587476941093802,-2.27917257457152,0.5628004717439413,-0.0546566247940063,0.1847619861364364,0.8115997314453125,walking
1783090571839066000,4.381066162109375,0.738711019270867,-2.1781213070653376,0.6126689567625522,-0.0109245916828513,0.1707191467285156,0.7916612029075623,walking
1783090571849110000,4.391110107421875,0.7970958420917391,-2.080641614435613,0.4591483740895986,0.0360747575759887,0.1477113217115402,0.783866822719574,walking
1783090571859155000,4.401155029296875,0.7657764285899699,-1.964788352986425,0.2177881799221038,0.0847152695059776,0.1204301640391349,0.7987003922462463,walking
1783090571869199000,4.41119921875,0.6154686704836786,-1.788329816187918,-0.1156669450968503,0.121075227856636,0.1402170360088348,0.834632396697998,walking
1783090571879243800,4.421243896484375,0.2184368530891835,-1.6485703401029108,-0.3499678684026002,0.1394587606191635,0.1836686432361602,0.8514063358306885,walking
1783090571889288000,4.431287841796875,-0.0804131147556006,-1.492236161313951,-0.2268172895520925,0.1680287569761276,0.1738268882036209,0.8775935173034668,walking
1783090571899333000,4.4413330078125,0.1632005574271083,-1.0987065068215132,0.2441992169857025,0.2020058929920196,0.0775461494922638,0.9337489604949952,walking
1783090571909376800,4.451376708984375,0.504015982080996,-0.8619984493087977,0.542895747834444,0.228163331747055,-0.089997611939907,0.986405313014984,walking
1783090571919422000,4.461421875,0.7354886962234973,-0.8407884880196302,0.5603817201644182,0.2453497797250747,-0.3256066739559173,1.0190298557281494,walking
1783090571929466000,4.471466064453125,0.7931218238942325,-0.973547437692806,0.3906429931402206,0.2529705166816711,-0.5726399421691895,1.0344908237457275,walking
1783090571939511000,4.481510986328125,0.7579480730518698,-1.1731421546027063,0.0399748675137758,0.2782106399536133,-0.7927310466766357,1.0255082845687866,walking
1783090571949555000,4.491554931640625,0.8547410985916852,-1.317788087555021,-0.3303624197006225,0.3349054753780365,-0.985742688179016,0.9958873391151428,walking
1783090571959599900,4.501599853515625,1.0789270167268812,-1.2070645171444865,-0.581458410462737,0.3891969621181488,-1.1369186639785769,0.9460771679878236,walking
1783090571969644000,4.51164404296875,1.2239767081744968,-0.8733245838347822,-0.7475450447201728,0.3893308341503143,-1.240198850631714,0.9016099572181702,walking
1783090571979689000,4.52168896484375,1.355550539716333,-0.4181956745196133,-0.7278396427750587,0.3336784839630127,-1.2727831602096558,0.8726862072944641,walking
1783090571989732900,4.53173291015625,1.2916978068783878,-0.1590473102051764,-1.0306325030267238,0.2781456410884857,-1.1295288801193235,0.8444391489028931,walking
1783090571999777000,4.541777099609375,0.3944134515896439,-0.1717865994647145,-2.248628821617365,0.2653499543666839,-0.7244827747344971,0.8262411952018738,walking
1783090572009822000,4.551822021484375,-0.2534223878830671,-0.2024912420690059,-3.642796530628204,0.2948806881904602,-0.2683515846729278,0.8486244678497314,walking
1783090572019866000,4.5618662109375,0.2390007715597748,-0.2711054902203381,-4.170002541899681,0.3233932852745056,0.0076017091050744,0.8742746710777283,walking
1783090572029911000,4.5719111328125,1.1250798422232269,-0.0544623886801302,-4.171325314936041,0.3301389217376709,0.0955212265253067,0.9238018989562988,walking
1783090572039955000,4.581954833984375,1.868327482010424,0.4251502428978681,-3.9722617092281576,0.3358127772808075,0.0998541936278343,1.0193744897842407,walking
1783090572050000000,4.591999755859375,2.373574759452045,0.6543642183281481,-3.501411206907034,0.3294737339019775,0.0862650424242019,1.1805957555770874,walking
1783090572060044000,4.6020439453125,2.382785363128781,0.8718249198615551,-2.7723411455541846,0.3363076746463775,0.0738307386636734,1.3928595781326294,walking
1783090572070089000,4.6120888671875,2.4047847212299702,1.225808745907247,-1.7299053920090195,0.3971426784992218,0.0238042064011096,1.6508532762527466,walking
1783090572080132900,4.6221328125,2.6355153848335147,1.7386818420521917,-0.3326210122823715,0.5015884041786194,-0.1329593062400818,1.911157488822937,walking
1783090572090178000,4.632177978515625,2.806277025164664,1.972480514924228,1.3339724757671356,0.5824751853942871,-0.4005861282348633,2.112424373626709,walking
1783090572100222000,4.642221923828125,2.8001716940268873,1.8842977890804409,2.9977889003187417,0.5985601544380188,-0.7602745890617371,2.2380404472351074,walking
1783090572110267000,4.652266845703125,2.663855928654969,1.6949255563035606,4.352711225134134,0.5684217810630798,-1.1650779247283936,2.3044824600219727,walking
1783090572120311000,4.66231103515625,2.1968322911456224,1.4067809607379138,5.128101723635196,0.550413191318512,-1.5663092136383057,2.298468828201294,walking
1783090572130356000,4.67235595703125,1.671547018803656,1.0166181523300706,5.461496642899513,0.5745593309402466,-1.8982418775558472,2.233719825744629,walking
1783090572140399900,4.68239990234375,1.3285045657500625,0.6322991745796054,5.39160185341835,0.621584415435791,-2.146796941757202,2.1122255325317383,walking
1783090572150445000,4.692445068359375,1.0571738884717226,0.1628825775191187,4.92232956019938,0.669326663017273,-2.3030102252960205,1.932079553604126,walking
1783090572160489000,4.702489013671875,0.8727876274138688,-0.3023755116224288,3.7986394187688823,0.734112560749054,-2.3213746547698975,1.740708589553833,walking
1783090572170534000,4.712533935546875,0.841430950641632,-0.5951927021089941,2.0683932504981755,0.8354865908622742,-2.206578016281128,1.5716328620910645,walking
1783090572180578000,4.722578125,0.852600579431653,-0.5754525941766798,0.2076759512305259,0.944586455821991,-1.9277009963989256,1.4387643337249756,walking
1783090572190623000,4.732623046875,0.5678028100758791,-0.3960406874652952,-1.5813707810550928,1.095028042793274,-1.474579930305481,1.3168509006500244,walking
1783090572200667000,4.7426669921875,0.0109255909010767,-0.2392669482152909,-3.1620144168794155,1.233489990234375,-0.9157450795173644,1.2095448970794678,walking
1783090572210712000,4.752712158203125,-0.5597282246917485,-0.0342107510291039,-4.502127879619598,1.2771821022033691,-0.2986911237239837,1.1125959157943726,walking
1783090572220756000,4.762755859375,-0.8603513396888971,0.2502154085353016,-5.490313572061061,1.1902180910110474,0.3348557353019714,1.0346232652664185,walking
1783090572230801000,4.77280078125,-0.9525447624787688,0.5820869176246225,-6.001722294741868,0.9934638142585754,0.92387717962265,0.98965585231781,walking
1783090572240845000,4.782844970703125,-0.8454019000992179,0.748881846281886,-5.805374377733469,0.750045657157898,1.319636583328247,1.002246379852295,walking
1783090572250889000,4.792888916015625,-0.6114999129831791,0.9266825184043496,-4.827691374605894,0.5674508810043335,1.456152319908142,1.1020615100860596,walking
1783090572260934000,4.802933837890625,-0.2398904138758778,0.9014008506968616,-3.4709120237469673,0.5195015072822571,1.385897874832153,1.2498070001602173,walking
1783090572270978000,4.81297802734375,-0.167630356568098,0.6444188706360757,-2.3241584021151063,0.5962569713592529,1.215461254119873,1.383148193359375,walking
1783090572281023000,4.82302294921875,-0.2804927656382322,0.4188232683660462,-1.152206041818857,0.7027498483657837,0.9408533573150636,1.4700298309326172,walking
1783090572291067000,4.83306689453125,-0.2569555304452777,0.3643675286224112,0.1299473993837833,0.7548801898956299,0.589641809463501,1.5254499912261963,walking
1783090572301112000,4.843112060546875,-0.2262473807096481,0.5077893996724858,1.137241112399101,0.7391424775123596,0.2583136856555938,1.570299744606018,walking
1783090572311156000,4.853156005859375,-0.2474652330443263,0.5932791601052507,1.752258678114414,0.6905901432037354,-0.0060669030062854,1.6174830198287964,walking
1783090572321201000,4.863200927734375,-0.2365025250032544,0.6671762074977159,2.0571032101988793,0.6504413485527039,-0.2258876860141754,1.6530388593673706,walking
1783090572331245000,4.8732451171875,-0.0551511015966534,0.7464316766507924,2.022635123407841,0.6233998537063599,-0.3859276175498962,1.687649130821228,walking
1783090572341290000,4.8832900390625,0.0048375031590461,0.7481843655370175,1.5936410645633936,0.5991775989532471,-0.4549652636051178,1.7158710956573486,walking
1783090572351334000,4.893333984375,0.0401955245271325,0.6170183110784739,1.0317384184420109,0.5596910715103149,-0.4523476660251617,1.727603793144226,walking
1783090572361378800,4.90337890625,0.1147808099120855,0.1816306422067806,0.2901028900265693,0.525183916091919,-0.3640044927597046,1.7050800323486328,walking
1783090572371423000,4.913423095703125,0.1866091978043317,-0.2986170724043622,-0.5356587823182344,0.5278078317642212,-0.1938251405954361,1.6525332927703855,walking
1783090572381468200,4.92346826171875,0.3323933410063385,-0.754022862432152,-1.0990344236016272,0.5634595155715942,0.0004444797523319,1.567399978637695,walking
1783090572391511800,4.93351171875,0.5682704275876284,-1.1449987407885491,-1.416535608163476,0.5915776491165161,0.2176722139120102,1.452441930770874,walking
1783090572401557000,4.943556884765625,0.9603466684013604,-1.1989049568906425,-1.4903864417940378,0.5802024602890015,0.3902775347232818,1.3696740865707395,walking
1783090572411601200,4.95360107421875,1.4127043594375253,-0.8985157967798412,-1.179886660426855,0.5437161326408386,0.4530273973941803,1.3367245197296145,walking
1783090572421645800,4.963645751953125,1.6502946796774862,-0.6885616714842617,-0.4482505479782819,0.514479398727417,0.4305852055549621,1.327052116394043,walking
1783090572431690000,4.97368994140625,1.682964484874904,-0.6314777021288871,0.2733200975298881,0.4907383322715759,0.3567422032356262,1.3337807655334473,walking
1783090572441735000,4.98373486328125,1.6362106247454882,-0.5765427275009453,0.8439858958214521,0.4542186856269836,0.2496762126684188,1.3718572854995728,walking
1783090572451778800,4.99377880859375,1.5091040017455817,-0.515106262024492,1.1332570111989977,0.4080433547496795,0.1601971387863159,1.4351733922958374,walking
1783090572461824000,5.003823974609375,1.4575073777601122,-0.3902086568435653,1.1961574117481708,0.3699135482311249,0.0778159722685813,1.5344408750534058,walking
1783090572471868200,5.0138681640625,1.293288290940225,-0.2208548374837264,0.964127940505743,0.3489969968795776,0.0408302657306194,1.6431934833526611,walking
1783090572481912800,5.023912841796875,1.001498763000965,-0.1887557448463514,0.5365601150721311,0.3440086543560028,0.0464039966464042,1.751328945159912,walking
1783090572491957000,5.03395703125,0.8297729538127779,-0.1278144424756988,0.1811240443915128,0.3449882566928863,0.014594892039895,1.8889397382736208,walking
1783090572502002000,5.044001953125,0.6695753775939345,0.2457865227097645,0.2293003385394811,0.3183939456939697,-0.0248031131923198,2.040632724761963,walking
1783090572512045800,5.0540458984375,0.692778850787878,0.1835439284821972,0.2613216167002916,0.2798472940921783,-0.0462590008974075,2.064347743988037,walking
1783090572522091000,5.064091064453125,0.6661871964603662,-0.429003045868501,0.2905751837134361,0.2495889812707901,-0.05662801861763,1.9400230646133425,walking
1783090572532135000,5.074135009765625,0.7406617149472237,-0.9619891749113798,0.5586199711889028,0.2694571912288666,-0.1454539448022842,1.790796160697937,walking
1783090572542178800,5.0841787109375,1.3900678724765776,-1.0082502100225537,0.9352321008890868,0.369286835193634,-0.2617291808128357,1.7023924589157104,walking
1783090572552224000,5.09422412109375,2.017733030579984,-0.7428647779494524,0.944015711325407,0.4779802560806274,-0.3847328424453735,1.6590372323989868,walking
1783090572562268000,5.104267822265625,2.439282618637383,-0.7192470248661935,0.7635954312890768,0.5599422454833984,-0.4782140552997589,1.6281781196594238,walking
1783090572572313000,5.11431298828125,2.5835920131117103,-0.8952101062979548,0.4088590333104133,0.6267116665840149,-0.4950093924999237,1.5946930646896362,walking
1783090572582357000,5.12435693359375,2.1999933855250475,-1.1724378787908702,-0.1657195545107126,0.6676918268203735,-0.4258111417293548,1.5362040996551514,walking
1783090572592402000,5.13440185546875,1.5892600730001925,-1.224073081221059,-0.5598088887125253,0.6610315442085266,-0.315788984298706,1.472083568572998,walking
1783090572602446000,5.144446044921875,1.0623346322357654,-0.9294128201510756,-0.6127917063593864,0.6294879913330078,-0.1821014732122421,1.4465481042861938,walking
1783090572612491000,5.154490966796875,0.7999605838730931,-0.738313471320644,-0.4218798429250717,0.586517333984375,-0.0732099935412406,1.4643903970718384,walking
1783090572622535000,5.164534912109375,0.6253583424657583,-0.6444277115296572,-0.2233732865780592,0.5473960041999817,0.0080265402793884,1.4779528379440308,walking
1783090572632580000,5.174580078125,0.4675143436357378,-0.6662419953875244,-0.1668015045285225,0.506503164768219,0.0753804594278335,1.4804999828338623,walking
1783090572642624000,5.1846240234375,0.4616819842204451,-0.9396084162771702,-0.2659498610228299,0.4669501781463623,0.1207916215062141,1.4946584701538086,walking
1783090572652669000,5.1946689453125,0.6092442430108785,-1.1410546793378888,-0.542630959418416,0.4551250338554382,0.1739916801452636,1.5134412050247192,walking
1783090572662713000,5.204713134765625,0.7038193002402782,-1.259843409717083,-0.8109592400103807,0.4694315493106842,0.1894931495189666,1.5351999998092651,walking
1783090572672757800,5.2147578125,0.8964756692543625,-1.367731829766929,-0.860230343657732,0.5149691700935364,0.1819844096899032,1.5572682619094849,walking
1783090572682802000,5.224802001953125,1.1367276099190116,-1.2089452163245529,-0.8598790460020304,0.559902012348175,0.1457755416631698,1.5856772661209106,walking
1783090572692847000,5.23484716796875,1.076766477692127,-1.0813135465372352,-0.5632113906323909,0.5674527287483215,0.0581431984901428,1.6039663553237915,walking
1783090572702890800,5.244890869140625,0.83760204000324,-1.085492074330896,0.0264572142928838,0.5300036072731018,-0.0802519544959068,1.630669116973877,walking
1783090572712936000,5.25493603515625,0.533203498120606,-0.9478495903998612,0.3749035722166299,0.4777650535106659,-0.2528980076313019,1.6659564971923828,walking
1783090572722980000,5.26497998046875,-0.1676426315277814,-0.971492624054849,0.3755845402181148,0.4558877348899841,-0.3868057131767273,1.6346230506896973,walking
1783090572733025000,5.27502490234375,-1.1978992869794367,-1.4273741053029894,0.0366588748335838,0.4818096458911896,-0.4816634654998779,1.5346693992614746,walking
1783090572743069000,5.28506884765625,-1.062928506475687,-1.3966910900086165,-0.2606348034799098,0.5291960835456848,-0.5865530967712402,1.4724066257476809,walking
1783090572753114000,5.295114013671875,-0.3730275492116808,-0.7744843434415757,-0.6101122580170631,0.5407332181930542,-0.6296181082725525,1.454787015914917,walking
1783090572763157200,5.3051572265625,-0.0742152830287814,-0.011549494953081,-1.3694132069826126,0.5294637680053711,-0.4804635643959045,1.495352029800415,walking
1783090572773202400,5.315202392578125,0.7562266560867429,0.8728643459118902,-2.23604932602942,0.5058386921882629,-0.1948616802692413,1.6061251163482666,walking
1783090572783246600,5.32524658203125,1.7644009513288734,1.4603978385046124,-2.896459108132124,0.4530205130577087,0.1617526412010193,1.7239145040512085,walking
1783090572793291500,5.33529150390625,1.9722560585185884,1.4587135386794805,-3.3223587080925703,0.3940907716751098,0.5669775605201721,1.8089418411254885,walking
1783090572803335400,5.34533544921875,1.1588424110934137,1.137536661279574,-3.4556425584226846,0.3502538204193115,0.9761581420898438,1.8723533153533936,walking
1783090572813380400,5.35538037109375,0.31849633307904,0.8206909449517726,-3.16424378336668,0.3519566655158996,1.2825225591659546,1.9313427209854128,walking
1783090572823424500,5.365424560546875,0.1351537358552217,0.6451664741329849,-2.1739263395935295,0.3701093196868896,1.3421083688735962,1.9476561546325684,walking
1783090572833468400,5.375468505859375,0.0959752794161439,0.2750163800537586,-1.2099696640014648,0.357164055109024,1.235830545425415,1.8797523975372312,walking
1783090572843513600,5.385513671875,0.3653755731537937,-0.0453456738319247,-0.6501321337163448,0.3058968782424927,1.0297541618347168,1.7951525449752808,walking
1783090572853557200,5.39555712890625,0.6537810116127133,-0.1265207128707319,-0.3194271841883659,0.2431775033473968,0.7788609862327576,1.709206223487854,walking
1783090572863602400,5.4056025390625,0.5175304204314947,-0.3219828600205481,-0.0739490333080291,0.204947292804718,0.514485776424408,1.6000512838363647,walking
1783090572873646600,5.415646484375,0.467251016524434,-0.5295760283384472,0.3031687078267335,0.2166805863380432,0.2493411153554916,1.4945389032363892,walking
1783090572883691500,5.42569140625,0.3457162023074924,-0.542051844356209,0.6806511906206607,0.2574695646762848,0.015229289419949,1.4177610874176023,walking
1783090572893735400,5.4357353515625,0.512497979222238,-0.2838163571029901,1.0594868415892122,0.3027401268482208,-0.1674418747425079,1.3668105602264404,walking
1783090572903780400,5.4457802734375,0.9674882107190788,0.0346990460027009,1.3406190741747617,0.3340120315551758,-0.314963161945343,1.3226302862167358,walking
1783090572913824500,5.455824462890625,1.6100896566696463,0.3065097618829459,1.604434845778346,0.3356592953205108,-0.4266852140426636,1.2905545234680176,walking
1783090572923869400,5.465869384765625,2.2364316033452747,0.4789612549971789,1.792975888428092,0.2981539964675903,-0.5271172523498535,1.2747396230697632,walking
1783090572933913300,5.475913330078125,2.6579998961031435,0.613117358117178,1.752930293765664,0.2667167782783508,-0.5618687868118286,1.2793785333633425,walking
1783090572943958500,5.48595849609375,2.872302571997046,0.6896322233252227,1.4898346531301736,0.2513681948184967,-0.5615097880363464,1.3104866743087769,walking
1783090572954002400,5.49600244140625,2.988713613459468,0.6847182939291,1.1530793175220488,0.252350389957428,-0.5046178698539734,1.3458482027053833,walking
1783090572964047400,5.50604736328125,2.8444688086539505,0.5564098939239979,0.5537918203800917,0.2566394209861755,-0.3676709532737732,1.3687777519226074,walking
1783090572974091500,5.516091552734375,2.6437378542557357,0.5396177490770816,-0.0006213467687368,0.2563987076282501,-0.2131771147251129,1.410758137702942,walking
1783090572984136700,5.52613671875,2.487860187062621,0.675348408037424,-0.3064794398099184,0.2586826384067535,-0.0742935389280319,1.467334866523743,walking
1783090572994180400,5.536180419921875,2.279751105111837,0.8183630865260958,-0.2567337043881416,0.251619815826416,0.0230929758399724,1.5170204639434814,walking
1783090573004225500,5.5462255859375,2.0426009298548102,0.6921314197298138,-0.0303793561726808,0.2275192737579345,0.0822569578886032,1.5223307609558103,walking
1783090573014269400,5.55626953125,1.4536930801689625,0.4002576475732028,0.0457499437838792,0.1971291154623031,0.1182744055986404,1.490468144416809,walking
1783090573024314400,5.566314453125,1.1080623641878369,0.2232997098851948,0.2262806984573602,0.1728445440530777,0.0998783558607101,1.4757288694381714,walking
1783090573034358500,5.576358642578125,1.2707540953099727,0.0302909472368657,0.3535580018490553,0.1610051989555359,0.0625948160886764,1.454656958580017,walking
1783090573044403500,5.586403564453125,1.3524486281782389,-0.1668142909448594,0.0851069716602563,0.1669312715530395,0.060469351708889,1.4121547937393188,walking
1783090573054447400,5.596447265625,1.3322899295076729,-0.2180822674978524,-0.2368061841249465,0.1727273017168045,0.0754269883036613,1.3816298246383667,walking
1783090573064492500,5.606492431640625,1.3725285625241697,-0.0717952162750065,-0.352219446721673,0.1776837110519409,0.095753826200962,1.3779916763305664,walking
1783090573074536400,5.616536376953125,1.3057399223648012,0.1610868532087653,-0.1307435181975364,0.1603098809719085,0.0497276000678539,1.404149055480957,walking
1783090573084581400,5.626581298828125,1.3958167913921176,0.2999105828136205,0.2296504671514034,0.1266379356384277,-0.0640703365206718,1.452101707458496,walking
1783090573094625500,5.63662548828125,1.4134006711386142,0.2999902969863265,0.2607598911643028,0.1007275730371475,-0.1996035724878311,1.4898416996002195,walking
1783090573104670500,5.64667041015625,1.3648846236422658,0.077599080248177,0.1066015951097011,0.0960020571947097,-0.3329499065876007,1.5096393823623655,walking
1783090573114714400,5.65671435546875,1.289739512417465,-0.1182592996776104,-0.0021451953351497,0.1213730946183204,-0.4373389184474945,1.529779076576233,walking
1783090573124758500,5.666758544921875,1.3007663717359303,-0.1819292232945561,0.0359159475117921,0.1739300340414047,-0.5289108753204346,1.5548210144042969,walking
1783090573134803500,5.676803466796875,1.3421093127325177,-0.2352170152373612,0.1348427702099084,0.2264063507318496,-0.5792872309684753,1.5650813579559326,walking
1783090573144847400,5.686847412109375,1.374244572661817,-0.2778158015139401,0.2466495327472686,0.2478900849819183,-0.5978150963783264,1.578361988067627,walking
1783090573154892500,5.696892578125,1.6934750652343034,-0.0297020414330065,0.4965022454500198,0.2245184630155563,-0.6043211221694946,1.6257898807525637,walking
1783090573164936400,5.7069365234375,2.1053329880997538,0.2426109248809516,0.5090063377141952,0.1655875146389007,-0.5516363382339478,1.6704729795455933,walking
1783090573174981400,5.7169814453125,2.0538085525676606,0.2326068327389657,0.1501759484201669,0.1008803471922874,-0.4348480999469757,1.691807746887207,walking
1783090573185025500,5.727025634765625,1.9134400046736,0.0757107822835445,-0.1607259840071201,0.0576806813478469,-0.307022213935852,1.700534462928772,walking
1783090573195070500,5.737070556640625,1.8539897445783016,-0.1219949790745973,-0.368223071539402,0.0388392135500907,-0.1987532973289489,1.6905255317687988,walking
1783090573205114400,5.7471142578125,1.6227391487538814,-0.3828751356177032,-0.61989072470963,0.0331251360476017,-0.0913099348545074,1.6511807441711426,walking
1783090573215159300,5.7571591796875,1.3393965466424822,-0.6161904088869691,-0.8448971654474735,0.0383125953376293,0.0203168112784624,1.6094684600830078,walking
1783090573225203500,5.767203369140625,1.1474562169432638,-0.726207073137164,-0.8603864110022783,0.0528382733464241,0.110080786049366,1.574040770530701,walking
1783090573235248600,5.77724853515625,1.1115078284665942,-0.8088508695542812,-0.5767044939339161,0.0728046745061874,0.1133184134960174,1.539838790893555,walking
1783090573245292500,5.78729248046875,1.31658236502707,-0.870653830255568,-0.130876789188385,0.0896656811237335,0.0529573373496532,1.487027287483215,walking
1783090573255337500,5.79733740234375,1.404812729404867,-0.9882269012346864,0.0907522840708494,0.0871107280254364,-0.0132219139486551,1.4153950214385986,walking
1783090573265381600,5.807381591796875,1.459647750789672,-1.138650540805608,0.1757037729084491,0.0741592422127723,-0.0654108226299285,1.3501111268997192,walking
1783090573275426300,5.81742626953125,1.5364887061469257,-1.154926552823931,0.0594645808815956,0.065921239554882,-0.086747720837593,1.3278833627700806,walking
1783090573285470500,5.827470458984375,1.668902641774714,-0.8147738298624754,-0.2423912907809019,0.0659723728895187,-0.0984318107366561,1.3705213069915771,walking
1783090573295515600,5.837515625,1.953973967374861,-0.4125679708309471,-0.4902314946174621,0.06864645332098,-0.103328563272953,1.449742078781128,walking
1783090573305559300,5.847559326171875,2.105080328512937,-0.1862495707117021,-0.606352613222599,0.0512187294661998,-0.1152848228812217,1.5080804824829102,walking
1783090573315604500,5.8576044921875,1.957625037228316,-0.2433069443210959,-0.6152116269826888,0.0261619817465543,-0.1198161467909812,1.5349392890930176,walking
1783090573325648600,5.867648681640625,1.3968513951368629,-0.427664563806355,-0.607857757088542,0.0228948164731264,-0.1330147832632064,1.5345994234085083,walking
1783090573335693300,5.877693359375,0.952547977349162,-0.5748642728947103,-0.4954091895163059,0.0465261489152908,-0.1618876010179519,1.530889630317688,walking
1783090573345737500,5.887737548828125,0.6462073614880443,-0.6931095440469682,-0.3589022854864597,0.105780154466629,-0.216972678899765,1.5062321424484253,walking
1783090573355782400,5.897782470703125,0.4949795659273862,-0.7586530064508319,-0.2696493000626563,0.1704662591218948,-0.2589834332466125,1.4568684101104736,walking
1783090573365826300,5.907826416015625,0.4943322079345583,-0.7445804958261549,-0.1301560736984014,0.174319326877594,-0.3014808297157287,1.3991729021072388,walking
1783090573375871500,5.91787158203125,0.6109940092876553,-0.6997795233301818,0.0483048889636993,0.1027227565646171,-0.3354320526123047,1.3364022970199585,walking
1783090573385915400,5.927915283203125,0.7975644825167953,-0.6676767043657601,0.101795656132698,-0.0429148748517036,-0.3462847173213959,1.2544711828231812,walking
1783090573395960600,5.937960693359375,0.9740518070183694,-0.7441685540243983,0.0586550180643796,-0.2026051878929138,-0.3198746144771576,1.1576387882232666,walking
1783090573406004500,5.94800439453125,1.206217617991567,-0.8182700014151633,-0.1003647465467452,-0.3165860772132873,-0.2556090652942657,1.0664020776748655,walking
1783090573416049400,5.95804931640625,1.252468789295852,-0.9407117013439537,-0.5217535910844803,-0.3446994423866272,-0.1616915166378021,0.9766875505447388,walking
1783090573426093600,5.968093505859375,1.416172035548091,-1.0443990164421495,-0.8723129956394433,-0.2945175170898437,-0.0962283462285995,0.8915092945098877,walking
1783090573436137500,5.978137451171875,1.5857492884002624,-1.090784189389646,-1.348896488654613,-0.2112099677324295,0.0080407569184899,0.8029353022575378,walking
1783090573446182400,5.988182373046875,1.6700459665909408,-1.166172461720556,-1.976512839180231,-0.1303518712520599,0.1758143156766891,0.7313242554664612,walking
1783090573456226300,5.998226318359375,1.7191630487203595,-1.0044093897506594,-2.2113959462881088,-0.0733818188309669,0.312004417181015,0.7044557929039001,walking
1783090573466271500,6.008271484375,1.564382675244659,-0.903781169962138,-2.1658564303845167,-0.0480117499828338,0.3620002269744873,0.6904270648956299,walking
1783090573476315400,6.0183154296875,1.4188134899675846,-0.9928791109547018,-2.103523016068339,-0.0526270866394043,0.3498834073543548,0.6659135222434998,walking
1783090573486360600,6.028360595703125,1.5195919318817557,-1.0658661673627794,-1.8730016113013028,-0.0675996467471122,0.2820098102092743,0.6447597742080688,walking
1783090573496404500,6.038404541015625,1.7322613074854016,-1.033132795409858,-1.6592051313638687,-0.0499799773097038,0.1949797868728637,0.6359356641769409,walking
1783090573506449400,6.048449462890625,1.7166189171954989,-0.8461177932836115,-1.485562967160344,0.0412987992167472,0.1567903161048889,0.6363711357116699,walking
1783090573516493600,6.05849365234375,1.3646135516159237,-0.5374415740817785,-1.1584095726341008,0.1448869854211807,0.1418804377317428,0.630744993686676,walking
1783090573526538500,6.06853857421875,1.1179986517906189,-0.1932629566051066,-0.644445320251584,0.2451986670494079,0.1285592913627624,0.6378077268600464,walking
1783090573536582400,6.07858251953125,0.92591043805331,-0.1256825815461575,-0.1919850456237793,0.3166801333427429,0.1149057745933532,0.6403618454933167,walking
1783090573546627600,6.088627685546875,0.7143518001705408,-0.3993006391093134,0.0029793080717325,0.3735103905200958,0.1053764522075653,0.6189902424812317,walking
1783090573556671500,6.09867138671875,0.675530340475589,-0.6782061355561018,-0.0154074124902486,0.4342546463012695,0.0747488066554069,0.5834961533546448,walking
1783090573566716400,6.10871630859375,0.8035117004834115,-0.7780426204450428,-0.1444131471097469,0.5046215057373047,0.0167845711112022,0.5453322529792786,walking
1783090573576760600,6.118760498046875,0.9413105440199374,-0.6193306066088378,-0.3218558726400137,0.5631018877029419,-0.0239937249571084,0.515887439250946,walking
1783090573586805500,6.128805419921875,0.9454925058797,-0.2751194020368158,-0.4535165056824684,0.6009949445724487,-0.0571988150477409,0.5141406655311584,walking
1783090573596849400,6.138849365234375,0.9499813417315482,0.0412210681825876,-0.5079460150063038,0.6235299706459045,-0.0779358521103859,0.5413686633110046,walking
1783090573606894600,6.14889453125,0.8688628551855683,0.3877976867116987,-0.5295353310018778,0.6546682119369507,-0.0643084570765495,0.5926116108894348,walking
1783090573616938200,6.158938232421875,0.8206576272040605,0.6286871946275234,-0.2461936056733131,0.6643267869949341,-0.0816325172781944,0.6504841446876526,walking
1783090573626983400,6.1689833984375,0.754990830681473,0.8196918509118258,0.222429868248105,0.6465893387794495,-0.1395256519317627,0.7137826681137085,walking
1783090573637027600,6.179027587890625,0.7560849095284938,1.0448502673409878,0.7105664364129305,0.6285162568092346,-0.2333977669477462,0.7881930470466614,walking
1783090573647072500,6.189072509765625,0.7161839840337634,1.2181694832004606,1.2282236980944872,0.6101119518280029,-0.3674637079238891,0.864134669303894,walking
1783090573657116400,6.199116455078125,0.600602671393752,1.3286378367409108,1.7277543514549731,0.5903091430664062,-0.5305588245391846,0.9334258437156676,walking
1783090573667161300,6.209161376953125,0.4520483328260481,1.3559496220365166,2.1383763027846814,0.5752702951431274,-0.683850884437561,0.9924505352973938,walking
1783090573677205500,6.21920556640625,0.2493864103652536,1.3603101553335786,2.3236510371148587,0.5793597102165222,-0.8212292790412903,1.0551570653915403,walking
1783090573687250400,6.22925048828125,-0.0191715873293578,1.3452749371565875,2.28593768479228,0.6038118004798889,-0.9135296940803528,1.114603877067566,walking
1783090573697294600,6.239294677734375,-0.2223943585433065,1.3069326392807066,1.855297027784586,0.656249463558197,-0.9237650036811828,1.1760529279708862,walking
1783090573707338500,6.24933837890625,-0.4033469918906688,1.3008384140588345,0.9674117844820022,0.7213128805160522,-0.8594073057174683,1.2476316690444946,walking
1783090573717383400,6.259383544921875,-0.3047005935691297,1.294704733609408,-0.0107785836458206,0.779580295085907,-0.7268324494361877,1.3088419437408447,walking
1783090573727427600,6.269427490234375,-0.0661903820052742,1.2494846589185298,-1.03205698287189,0.7895828485488892,-0.5168011784553528,1.328495740890503,walking
1783090573737472500,6.279472412109375,0.029603111103177,1.1865955104157329,-2.0161761565268037,0.7395636439323425,-0.2221797257661819,1.2961963415145874,walking
1783090573747516400,6.289516357421875,-0.0229028828121721,1.0899543144367634,-2.6016093158394096,0.6575489044189453,0.1056255847215652,1.2320040464401243,walking
1783090573757561300,6.299561279296875,-0.1718755929224193,0.8905096004568039,-2.6883582094877956,0.5716226100921631,0.4031491279602051,1.1588366031646729,walking
1783090573767606000,6.30960595703125,-0.4881370065562427,0.5545834091491997,-2.3747949488967657,0.5053970217704773,0.6438837051391602,1.0814038515090942,walking
1783090573777651000,6.31965087890625,-0.8058185161210596,0.3368576269388199,-1.7912609012037517,0.4483965635299682,0.813233494758606,1.012121081352234,walking
1783090573787694800,6.32969482421875,-0.9401716031178832,0.2581168293096125,-1.145680439442396,0.3890751898288727,0.8920252919197083,0.947285294532776,walking
1783090573797740000,6.339739990234375,-0.9085342097081244,0.3339244960963726,-0.5912368771553039,0.3422044515609741,0.896588146686554,0.8799743056297302,walking
1783090573807784000,6.349783935546875,-0.8356304476693273,0.3961889368295669,-0.1815776333779096,0.2877505123615265,0.8675612807273865,0.8139659762382507,walking
1783090573817828900,6.359828857421875,-0.7162494504854082,0.3771282625287771,0.4102051872223615,0.2152025997638702,0.6836910247802734,0.7647476196289062,walking
1783090573827873000,6.369873046875,-0.4084538135103881,0.4114218695357441,0.7351870829284191,0.2033826857805252,0.4947921931743622,0.734738290309906,walking
1783090573837917700,6.379917724609375,-0.1447035083584487,0.2214515247352421,0.747024235716462,0.2441774308681488,0.3183532357215881,0.6930446028709412,walking
1783090573847961900,6.3899619140625,-0.2226977254040539,0.0326667364574968,0.9261001154065132,0.2581222951412201,0.1488036066293716,0.6525794863700867,walking
1783090573858007000,6.400007080078125,-0.3508456741504371,0.0339591143555939,0.8070335909992455,0.2322066575288772,-0.0269794389605522,0.6117168664932251,walking
1783090573868050700,6.41005078125,-0.4418284059762954,-0.1209102525778114,0.5920131222248077,0.2354176342487335,-0.1799583286046981,0.5764211416244507,walking
1783090573878096000,6.420095947265625,-0.3952694838970899,-0.1912834732256829,0.2301350357979535,0.2938767671585083,-0.2281714677810669,0.5453193783760071,walking
1783090573888140000,6.43014013671875,-0.2665567408747971,-0.0560692393548786,-0.0335468802928924,0.3506210148334503,-0.1984071731567382,0.5437526702880859,walking
1783090573898185000,6.44018505859375,-0.1574637673407793,0.0676680533424019,-0.1468131939888,0.3662285208702087,-0.1414092481136322,0.5531153082847595,walking
1783090573908228900,6.450228759765625,-0.0917122151441872,-0.0009488251574337,-0.049215574067831,0.3475919961929321,-0.0622904598712921,0.5592427253723145,walking
1783090573918274000,6.460274169921875,0.0062833180531859,-0.1097811019286513,0.1291062723845243,0.2899907529354095,-0.0123432166874408,0.5651963949203491,walking
1783090573928318000,6.47031787109375,0.2173886592105031,-0.1750169596880674,0.4589689258694648,0.2085611373186111,-2.71615572273e-05,0.5838451981544495,walking
1783090573938363000,6.48036279296875,0.4684202064342797,-0.2478042557403445,0.7862520842552184,0.1149293854832649,-0.031912911683321,0.6144309043884277,walking
1783090573948407000,6.490406982421875,0.8267799094766378,-0.3367043360732495,1.1378571984708308,0.0187658369541168,-0.1294109672307968,0.6795616745948792,walking
1783090573958452000,6.500451904296875,1.1943388180188834,-0.3104585725739598,1.4041624488025903,-0.046288963407278,-0.2599013149738312,0.7422405481338501,walking
1783090573968495900,6.510495849609375,1.4887700926385818,-0.4384877172462642,1.228934476712346,-0.0598439201712608,-0.4028491377830505,0.7830201983451843,walking
1783090573978540800,6.520540771484375,1.745649489107728,-0.6260207518972456,1.143168748882413,-0.0308727174997329,-0.5450709462165833,0.8112732768058777,walking
1783090573988585000,6.5305849609375,1.8983688384003936,-0.7425069044224918,1.169282264304161,0.0035875218454748,-0.671802818775177,0.8439321517944336,walking
1783090573998630000,6.5406298828125,1.6263393652029334,-0.8860941221021116,1.0513806920230389,0.0196415949612855,-0.7468894720077515,0.8687752485275269,walking
1783090574008673800,6.550673828125,1.1051374166518448,-1.1520685330443083,0.8580050688236951,0.0212309695780277,-0.726604163646698,0.8753125071525574,walking
1783090574018718000,6.560718017578125,0.5780692064158618,-1.3468700973935424,0.6770593036085367,0.0322916768491268,-0.6303433179855347,0.8819001317024231,walking
1783090574028763000,6.570762939453125,0.1191704231731593,-1.3491422801092263,0.5545271489173174,0.0529306419193744,-0.513893187046051,0.9083823561668396,walking
1783090574038807000,6.58080712890625,-0.295667684546858,-1.384905813538283,0.5127858562529086,0.0927463844418525,-0.4018880724906921,0.915033757686615,walking
1783090574048852000,6.59085205078125,-0.4867904142528772,-1.4723830214612186,0.4853665189296007,0.137869656085968,-0.3259213864803314,0.8825298547744751,walking
1783090574058896000,6.600895751953125,-0.3359763140596449,-1.548241103260964,0.5039911399006843,0.151501178741455,-0.316343605518341,0.8502471446990967,walking
1783090574068940800,6.61094091796875,-0.0767737353399395,-1.4340034603148697,0.3111339876174926,0.1611918956041336,-0.3296943008899688,0.8458393216133118,walking
1783090574078985000,6.62098486328125,0.1031688441820442,-1.1250966472275554,-0.2187403660804033,0.1991025656461715,-0.3419050574302673,0.8705017566680908,walking
1783090574089030100,6.631030029296875,0.3144350749894976,-0.7379032100193202,-0.8001981920212506,0.2673793435096741,-0.3716911971569061,0.9120334982872008,walking
1783090574099073800,6.64107373046875,0.443253031951934,-0.7547218044817448,-0.979710125041008,0.3154322206974029,-0.4513548016548157,0.9212253093719482,walking
1783090574109119000,6.651118896484375,0.2245718487128615,-1.076031587546319,-0.6068903733611106,0.3173113465309143,-0.5616949200630188,0.9073904752731324,walking
1783090574119163100,6.6611630859375,0.247946879081428,-1.6125824963986872,-0.178799985358119,0.2788337767124176,-0.7261433005332947,0.8271511793136597,walking
1783090574129207800,6.671207763671875,0.0486900888890027,-2.0993182578548786,0.2311222932696342,0.2302742004394531,-0.9217828512191772,0.7213171720504761,walking
1783090574139252000,6.681251953125,0.1812260434612631,-2.029184545051306,0.3540618597179651,0.2232944518327713,-1.0810470581054688,0.6486135721206665,walking
1783090574149297000,6.691296875,0.2254839951217174,-1.7616661195375023,-0.0141325702488422,0.2674744427204132,-1.1546355485916138,0.5948339700698853,walking
1783090574159340800,6.7013408203125,-0.5864651327088475,-1.8484506690211593,-0.7330190912395715,0.3628324568271637,-1.0667283535003662,0.5259445905685425,walking
1783090574169386000,6.711385986328125,-1.7078166020587089,-1.7035086757317184,-1.6845827337265014,0.4890026450157165,-0.8007262349128723,0.5149537324905396,walking
1783090574179430000,6.721429931640625,-0.9220189835727214,-0.8967607698060571,-2.3674866717100143,0.5349514484405518,-0.4928564131259918,0.62168288230896,walking
1783090574189474800,6.731474853515625,0.220620772999525,0.3667996876727789,-2.778160645487904,0.447474330663681,-0.1497850567102432,0.791597843170166,walking
1783090574199519000,6.74151904296875,0.7136793077364564,1.5226321763604878,-3.3158570711135864,0.3270569741725921,0.2543379664421081,0.991622507572174,walking
1783090574209564000,6.75156396484375,1.286326050712168,2.3744763844668864,-3.914114640685915,0.2775200605392456,0.6351255178451538,1.2003439664840698,walking
1783090574219607800,6.76160791015625,1.3368641055554151,2.648985984042287,-4.1075644981652495,0.3171641528606415,0.9030948281288148,1.3515907526016235,walking
1783090574229653000,6.771653076171875,1.0405610457144676,2.063097482177615,-3.442296170115471,0.3654616475105285,1.0128273963928225,1.4115073680877686,walking
1783090574239697000,6.78169677734375,0.2974773643173277,1.0181849632553757,-2.4086995565861464,0.3474455177783966,1.0457441806793213,1.3501582145690918,walking
1783090574249742000,6.7917421875,-0.6458163163438438,-0.0969620984964072,-1.3271972825437783,0.2825296223163605,1.017372727394104,1.180910587310791,walking
1783090574259786000,6.801785888671875,-0.8412620238155126,-0.8351070083171128,-0.2399596797198057,0.2159914374351501,0.8924508094787598,0.9928084015846252,walking
1783090574269831000,6.811830810546875,-0.4017893871851265,-0.8275406647160649,0.5080892228692769,0.1648369133472442,0.6916660070419312,0.8405413627624512,walking
1783090574279875000,6.821875,-0.0526649838693439,-0.4250513856332749,0.7422644739687443,0.1347355991601944,0.5392501950263977,0.7323887944221497,walking
1783090574289919700,6.831919677734375,0.206133397963643,-0.1000325189176946,0.7199889292746782,0.1486080139875412,0.4438574314117431,0.655409574508667,walking
1783090574299964000,6.8419638671875,0.3326281726755201,0.0933983416002243,1.0476029270499945,0.1852470189332962,0.3839771449565887,0.583604633808136,walking
1783090574310009000,6.852009033203125,0.1477457986637949,0.3051267830919474,1.244855683943629,0.1995191723108291,0.3495792150497436,0.5426161885261536,walking
1783090574320052700,6.862052734375,0.0593840629912912,0.572582007176429,1.4652408946216104,0.1631336212158203,0.2830860316753387,0.5381855368614197,walking
1783090574330097000,6.872096923828125,0.3246326438769698,0.8662760535627603,1.8938485844969748,0.0792006477713584,0.1713033020496368,0.5898740291595459,walking
1783090574340142000,6.88214208984375,0.6562311812438071,1.1952999912012368,2.184206910589338,-0.0108667956665158,0.0066759623587131,0.6853612065315247,walking
1783090574350186000,6.89218603515625,0.9577202654205262,1.4346040565565228,2.0874007333070037,-0.0796754211187362,-0.1284837126731872,0.8047001361846924,walking
1783090574360231000,6.90223095703125,1.2893284473985434,1.7079777839697896,1.5376257473528383,-0.0989198982715606,-0.1643079370260238,0.9714983701705932,walking
1783090574370275000,6.912275146484375,1.693307161321491,2.0574866565585137,0.8702648309379816,-0.0896326526999473,-0.1377591490745544,1.158378839492798,walking
1783090574380319700,6.92231982421875,2.0199986374244094,2.110984291859716,0.2565086634606123,-0.0579522252082824,-0.068195529282093,1.3035147190093994,walking
1783090574390364000,6.932364013671875,2.2285179076112804,2.050211550989002,0.0050058454632759,-0.0020633942913264,-0.0343004092574119,1.4002820253372192,walking
1783090574400409000,6.9424091796875,2.205793450105935,1.782028085695207,0.4119616755008697,0.0426203534007072,-0.072155125439167,1.455303430557251,walking
1783090574410452700,6.95245263671875,2.0232322125181557,1.1606650964759289,1.027418801677227,0.0377454347908496,-0.1280692666769027,1.4438352584838867,walking
1783090574420498000,6.962497802734375,1.4805410473451015,0.4105962323665618,1.1466823099613188,-0.0165960881859064,-0.1069406419992446,1.3713277578353882,walking
1783090574430542000,6.9725419921875,0.912110022368282,-0.2518425713457167,0.7924649674206972,-0.0721083506941795,-0.0420223623514175,1.2680668830871582,walking
1783090574440586800,6.982586669921875,0.9261401551559568,-0.6204129950180649,0.5230658427268267,-0.0906040519475936,0.0283325687050819,1.17453134059906,walking
1783090574450631000,6.992630859375,1.344064830714464,-0.4688562597639858,0.2882476175487041,-0.0807367712259292,0.0621097087860107,1.090015888214111,walking
1783090574460675800,7.00267578125,1.6396917448595163,-0.2443348260641097,-0.0252022457957267,-0.0709136053919792,0.0840488299727439,1.009714126586914,walking
1783090574470719700,7.0127197265625,1.655139635490626,-0.3034967707373202,-0.4279395813554525,-0.0742340311408042,0.1076098158955574,0.9328736066818236,walking
1783090574480765000,7.022764892578125,1.463246213673055,-0.2348369298785924,-0.7549901000291108,-0.0899272486567497,0.1206788569688797,0.8861192464828491,walking
1783090574490809000,7.03280908203125,1.1918861641697585,-0.0940256066530942,-0.8084598244100809,-0.1018243879079818,0.0808235853910446,0.8927457332611084,walking
1783090574500854000,7.04285400390625,1.1258366519398986,0.0299405263639986,-0.5205991603523492,-0.0826016440987587,-0.0372737497091293,0.9316171407699584,walking
1783090574510898000,7.05289794921875,1.189750028923899,-0.0189281339623034,-0.1102232927381992,-0.0509031005203723,-0.1617115437984466,0.968272626399994,walking
1783090574520942800,7.06294287109375,1.1736027578517794,-0.2057438141241669,0.1655336765497922,-0.0368947759270668,-0.2456739097833633,0.9838786721229552,walking
1783090574530987000,7.072987060546875,1.1529738113209604,-0.3760913206964731,0.4535948316156863,-0.0408591590821743,-0.2918565571308136,0.9981505274772644,walking
1783090574541032000,7.083031982421875,1.236099838297069,-0.446897233673185,0.7208364860147237,-0.0463997833430767,-0.2930936813354492,1.001541018486023,walking
1783090574551075800,7.093075927734375,1.098596908967197,-0.4070638204567134,0.8195920437991618,-0.072343498468399,-0.3004330694675445,1.009105920791626,walking
1783090574561121000,7.10312109375,1.1472210930131377,-0.3709484048500657,0.9861486336559055,-0.1148585453629493,-0.3274089694023132,1.0143615007400513,walking
1783090574571165000,7.1131650390625,1.2072462303869425,-0.2991866524532437,1.0918500650554894,-0.1648860424757003,-0.3533026278018951,1.0316853523254397,walking
1783090574581209900,7.1232099609375,1.3090643906123935,-0.1758982725672424,1.0842261460483074,-0.2086689174175262,-0.3500116467475891,1.0475566387176514,walking
1783090574591254000,7.13325390625,1.3258990594267843,-0.1796162701770663,0.9370376890063286,-0.2494301944971084,-0.2937158644199371,1.0731682777404783,walking
1783090574601298000,7.1432978515625,1.2591231326185166,-0.2109599413372576,0.7419236977070569,-0.2867113351821899,-0.2154066264629364,1.11404550075531,walking
1783090574611342800,7.1533427734375,1.3013967785939573,-0.3443241634272039,0.6270651463836431,-0.3171286284923553,-0.1509224325418472,1.1472434997558594,walking
1783090574621387000,7.163386962890625,1.4669886150717737,-0.6221297358080744,0.486539069840312,-0.3252198696136474,-0.1232602819800376,1.1515222787857056,walking
1783090574631432000,7.173431884765625,1.5261096432127057,-0.928271321965754,0.2542565006196499,-0.2824244797229767,-0.1130337342619896,1.1310713291168213,walking
1783090574641475800,7.183475830078125,1.448403887719661,-1.1014018833853303,0.0578799420386552,-0.206375166773796,-0.1041233986616134,1.108233094215393,walking
1783090574651521000,7.19352099609375,1.3677413282476365,-1.0559629052467645,0.0359288069933652,-0.1276545226573944,-0.0911173149943351,1.1067047119140625,walking
1783090574661565000,7.20356494140625,1.2272396554931997,-0.8809769252188503,0.1438765560150146,-0.0917445048689842,-0.0701794773340225,1.120223045349121,walking
1783090574671609900,7.21360986328125,1.0769139233388003,-0.6394501423127948,0.1923766752898693,-0.0915655419230461,-0.0280149728059768,1.14577317237854,walking
1783090574681654000,7.223654052734375,1.1539758279703556,-0.4087601029805839,0.1897241149544715,-0.1099372804164886,0.0134463999420404,1.1854538917541504,walking
1783090574691699000,7.233698974609375,1.2339555197447538,-0.2227856959484517,-0.0782037681430578,-0.1174793541431427,0.0615646578371524,1.227371335029602,walking
1783090574701742800,7.243742919921875,1.3278447866670786,-0.1713210277795791,-0.5871107371360064,-0.1133860200643539,0.1028766855597496,1.2582985162734983,walking
1783090574711788000,7.2537880859375,1.4365693652801217,-0.1261295946612954,-1.1191203492969275,-0.0926658287644386,0.1347696334123611,1.2885054349899292,walking
1783090574721832000,7.26383203125,1.4916453558139502,-0.0065066054150462,-1.3090408636063338,-0.0729296281933784,0.1283857822418213,1.3228518962860107,walking
1783090574731876900,7.273876953125,1.399097566628456,0.0566569761149585,-1.0219324792206286,-0.0707290545105934,0.0816843211650848,1.349860906600952,walking
1783090574741921000,7.283921142578125,1.0940201025709508,-0.0757455613359808,-0.5920119531810283,-0.0816158801317215,0.0250594615936279,1.3428561687469482,walking
1783090574751966000,7.293966064453125,0.6423453522976488,-0.3563710134431719,-0.2637181564480066,-0.0735941752791404,-0.0296277496963739,1.3079400062561035,walking
1783090574762010400,7.30401025390625,0.2602987033933401,-0.6714514005988836,-0.0565559999585151,-0.0250789262354373,-0.0980920642614364,1.2403526306152344,walking
1783090574772055300,7.31405517578125,0.0168495010573416,-1.0092949698351323,0.0529220273703336,0.0634362921118736,-0.1968000084161758,1.1474765539169312,walking
1783090574782099500,7.324099365234375,-0.1498982274573296,-1.3380237969845532,0.0905535466283559,0.16240294277668,-0.3060144782066345,1.0345548391342163,walking
1783090574792144600,7.33414453125,-0.4205883418098092,-1.607302071777731,0.0299690218061208,0.2319812178611755,-0.4233802556991577,0.8945942521095276,walking
1783090574802188300,7.344188232421875,-0.2735745837476104,-1.6730827039383351,0.0262695827662944,0.2530913054943084,-0.5722781419754028,0.7617379426956177,walking
1783090574812233500,7.3542333984375,0.2292434937857091,-1.4337084228910504,-0.0181722010284662,0.2132200747728347,-0.7010060548782349,0.6402416229248047,walking
1783090574822277400,7.36427734375,0.6297508783362805,-1.0216795273728667,-0.2766068641155958,0.1350890696048736,-0.7652813792228699,0.5533790588378906,walking
1783090574832322300,7.374322265625,1.0354947022356091,-0.568021129001677,-0.4925613988697528,0.058092039078474,-0.7256612777709961,0.5401806831359863,walking
1783090574842366500,7.384366455078125,1.1770751101374626,-0.1364487441018223,-0.909865604442358,0.0113219991326332,-0.5689534544944763,0.5834294557571411,walking
1783090574852411400,7.394411376953125,1.2334862947978078,0.0083757602877914,-1.3995856424063444,0.007819409482181,-0.3402372002601623,0.6473149061203003,walking
1783090574862455300,7.404455322265625,1.507743527047336,-0.0151695120811462,-1.8853893837094309,0.0242350660264492,-0.0814328789710998,0.7119082808494568,walking
1783090574872500500,7.41450048828125,1.8324568349450825,-0.0644211803756654,-2.282038339266181,0.0383772514760494,0.1657550781965255,0.7680045962333679,walking
1783090574882544600,7.424544677734375,2.1381905709542335,-0.1606093718901276,-2.377177460119128,0.0332984961569309,0.3327658176422119,0.8209832310676575,walking
1783090574892588300,7.43458837890625,2.2292574739322064,-0.2433157121494412,-2.1824211962163447,0.0326353684067726,0.3884738087654114,0.8597197532653809,walking
1783090574902633500,7.444633544921875,2.0947614713333547,-0.3034264819800853,-1.7783844684958456,0.0540785267949104,0.3743236660957336,0.8777978420257568,walking
1783090574912677600,7.454677734375,1.8648609749436376,-0.1907797614872455,-1.3588590797424316,0.0871241018176078,0.3530524671077728,0.8995603919029236,walking
1783090574922722300,7.464722412109375,1.540502471832931,0.0558963670060038,-0.9595628245472908,0.1058493182063102,0.3458069264888763,0.9261173009872437,walking
1783090574932766500,7.474766357421875,1.3039388642922043,0.2802517964892089,-0.5521674340486526,0.1059057787060737,0.3213875889778137,0.9590350389480592,walking
1783090574942811400,7.484811279296875,1.237360359752178,0.4248259793795645,0.022158055794239,0.0943878144025802,0.2531212866306305,0.9869696497917176,walking
1783090574952855300,7.494855224609375,1.0985230400133876,0.4756470889478921,0.6665683047324419,0.0828912109136581,0.1508276611566543,0.9990997910499572,walking
1783090574962900500,7.504900390625,0.8482065822564065,0.3371636241480708,1.2061322777956724,0.0771484151482582,0.0504679568111896,0.99588942527771,walking
1783090574972944400,7.5149443359375,0.6432334602437914,0.1475001533396542,1.6040408780246973,0.0925097987055778,-0.0139858648180961,0.9831994771957396,walking
1783090574982989300,7.5249892578125,0.4256457713298499,-0.0166392923727631,1.8955366837143897,0.1089891269803047,-0.0437233634293079,0.962864637374878,walking
1783090574993033500,7.535033447265625,0.3864914264187216,-0.0713356359392404,2.032566150313616,0.1255478709936142,-0.0772160738706588,0.944171667098999,walking
1783090575003078400,7.545078369140625,0.6492387650731951,0.0330820392601192,2.0436235509008167,0.1553627252578735,-0.1579695492982864,0.9501194357872008,walking
1783090575013122300,7.555122314453125,0.9800325619284064,0.1654125343881547,1.8824357946008443,0.1994918286800384,-0.2777763903141022,0.9771869778633118,walking
1783090575023167500,7.56516748046875,1.2250289206411689,0.2049944570615887,1.6490671837091444,0.2368988543748855,-0.4409529268741607,1.001956343650818,walking
1783090575033211400,7.57521142578125,1.324733376648277,0.1884337828829884,1.4183102166205643,0.2795200943946838,-0.6407517790794373,1.0277680158615112,walking
