time,seconds_elapsed,accel_x,accel_y,accel_z,gyro_x,gyro_y,gyro_z,label
1783090486280989700,0.04998974609375,0.3117127373535185,-0.3659088032476604,0.3751654380232095,0.0144156627357006,-0.581944465637207,0.2053263783454895,walking
1783090486291034400,0.060034423828125,0.2455040159739553,-0.2831219450980424,0.4125146332085132,-0.0070158601738512,-0.5329494476318359,0.2421016991138458,walking
1783090486301078500,0.07007861328125,0.1403330381892621,-0.2338927808962762,0.3000660656362772,0.0393371693789958,-0.4278222620487213,0.254719614982605,walking
1783090486311123700,0.080123779296875,-0.0545125114321708,-0.3287429287400096,0.2587128955066204,0.1156809478998184,-0.3332097232341766,0.2435761541128158,walking
1783090486321167400,0.09016748046875,-0.2098855170387774,-0.3344567763421684,0.5081675488024949,0.1786456704139709,-0.216217502951622,0.2307096719741821,walking
1783090486331211500,0.10021142578125,-0.2016187700834125,-0.2522206108778715,0.5173498031675815,0.1955146640539169,-0.0750681087374687,0.2420510053634643,walking
1783090486341256700,0.110256591796875,-0.1359207747049629,-0.0988870752096176,0.4965203656286001,0.1656448692083358,0.0286750886589288,0.2595131695270538,walking
1783090486351300400,0.12030029296875,0.1281108316063881,0.0429960419658571,0.5477461104750633,0.105916291475296,0.096391811966896,0.2771393060684204,walking
1783090486361345500,0.130345458984375,0.3329493674539029,0.1022325862452387,0.3874491655349731,0.0519501194357872,0.1417890936136245,0.2887523472309112,walking
1783090486371389700,0.1403896484375,0.478654234874621,0.017499781659618,0.2216588838756084,-0.0090866005048155,0.1560452580451965,0.3059246838092804,walking
1783090486381433600,0.15043359375,0.5084269303910434,-0.0874578456353396,-0.0473778372466564,-0.0682425051927566,0.1704803556203842,0.3385644853115082,walking
1783090486391478500,0.160478515625,0.3281937704246491,-0.0714484486639499,-0.3160539083629846,-0.1109782457351684,0.2123822718858719,0.3719168603420257,walking
1783090486401522700,0.170522705078125,0.1925614572722464,-0.0461894311796873,-0.3260164994508028,-0.1233458891510963,0.2461129277944564,0.4017537534236908,walking
1783090486411567400,0.1805673828125,0.3300708894081413,-0.0725473498165607,-0.1592120723128318,-0.1233589351177215,0.2497193813323974,0.4475731551647186,walking
1783090486421611500,0.190611572265625,0.373232789460197,-0.0814803786609321,-0.0807820941984653,-0.1050564050674438,0.192081332206726,0.5069708824157715,walking
1783090486431655700,0.20065576171875,0.3457096995014697,-0.1926702514089643,-0.159157711777091,-0.0447738915681839,0.1287361830472946,0.5662941336631775,walking
1783090486441700400,0.210700439453125,0.2877868681691586,-0.4626442533813417,-0.2988964373350143,0.0360616594552993,0.0799567624926567,0.6002732515335083,walking
1783090486451744500,0.22074462890625,0.2751336497578769,-0.684661814501509,-0.2624666950821876,0.0954805165529251,0.0362369790673255,0.5989014506340027,walking
1783090486461789700,0.230789794921875,0.2939851382873952,-0.8215767878755926,-0.2186111867427825,0.1074816510081291,-0.0063478597439825,0.5766168832778931,walking
1783090486471833300,0.240833251953125,0.3180933783013373,-0.8706089682005346,-0.1627425845265388,0.0835486203432083,-0.0533396005630493,0.5243523120880127,walking
1783090486481877500,0.25087744140625,0.2803193087674677,-0.7947915837373584,-0.1682511188149452,0.0380753651261329,-0.093961663544178,0.4553526937961578,walking
1783090486491922700,0.260922607421875,0.0634996085513383,-0.6443747392334044,-0.201780463451147,0.0013879244215786,-0.1276072412729263,0.3765527009963989,walking
1783090486501966600,0.270966552734375,-0.1460175135664641,-0.5892109973508864,-0.2087269215881824,-0.0020056548528373,-0.1606131345033645,0.3021707534790039,walking
1783090486512011500,0.281011474609375,-0.3296716609574854,-0.5773991981998086,-0.1017015481084585,0.0147099420428276,-0.1995485424995422,0.2326995432376861,walking
1783090486522055700,0.2910556640625,-0.3439236198022961,-0.6718752520341426,0.1607575481891631,0.0221041236072778,-0.2481335997581482,0.1761086732149124,walking
1783090486532099600,0.301099609375,-0.0589446486607193,-0.7810930209916085,0.3328688495635986,0.0044569526799023,-0.307281345129013,0.1309382617473602,walking
1783090486542144500,0.31114453125,0.3793170778099447,-0.8404296646445989,0.3247492559939622,-0.0254987310618162,-0.3537924587726593,0.0975984409451484,walking
1783090486552188700,0.321188720703125,0.6983175610188395,-0.8921015458233654,0.0187538003087043,-0.0467893704771995,-0.3608594238758087,0.0780367255210876,walking
1783090486562233300,0.3312333984375,0.8528099843986332,-0.8740952028810978,-0.3722784844100475,-0.0408993884921073,-0.3204157054424286,0.0802281573414802,walking
1783090486572277500,0.341277587890625,0.844982286447659,-0.7962773653157055,-0.5869447329193354,-0.0177032556384801,-0.2651340663433075,0.1016242578625679,walking
1783090486582321700,0.35132177734375,0.7465488732896745,-0.77052727637887,-0.4939519764453172,0.0009944427292793,-0.2055062651634216,0.1278994083404541,walking
1783090486592366300,0.361366455078125,0.6092730307139456,-0.7680945693392306,-0.2148328372478485,0.0078699253499507,-0.1715581566095352,0.1571467667818069,walking
1783090486602410500,0.371410400390625,0.5115451354768127,-0.7936618490550666,0.1694055495470762,0.0066038575023412,-0.1510036736726761,0.1809582412242889,walking
1783090486612455700,0.38145556640625,0.3538352113552391,-0.8971171089630573,0.3346937269032001,-0.0039435918442904,-0.1058798730373382,0.1767890602350235,walking
1783090486622499600,0.39149951171875,0.2207940106745809,-1.0074563562311232,0.3811579564362764,-0.0250592622905969,-0.0553346090018749,0.1660555750131607,walking
1783090486632543500,0.40154345703125,0.2602688197117299,-1.0149847789745776,0.4028641768097877,-0.0595237612724304,-0.0210251081734895,0.1490169465541839,walking
1783090486642588700,0.411588623046875,0.3153928141057491,-1.0848121292427182,0.2336059267789125,-0.0853336155414581,-0.0144325010478496,0.1359610557556152,walking
1783090486652632600,0.421632568359375,0.4166450110115111,-1.2307459100484848,0.0517372014999389,-0.0959508270025253,-0.043978676199913,0.1278069913387298,walking
1783090486662677500,0.431677490234375,0.5436434974618256,-1.3560923915080725,-0.1675192974090576,-0.0857779160141944,-0.0892001837491989,0.128090500831604,walking
1783090486672721700,0.4417216796875,0.647970279507339,-1.413940184842795,-0.3607721710115671,-0.0367701612412929,-0.1163668185472488,0.1435219198465347,walking
1783090486682765000,0.45176513671875,0.6040225628398358,-1.3885408090397715,-0.5064888019353151,0.0264720190316438,-0.1235992014408111,0.1634752452373504,walking
1783090486692809700,0.461809814453125,0.5576925541456789,-1.3110568796038626,-0.3983353012084961,0.0654670894145965,-0.1156374141573906,0.1879257261753082,walking
1783090486702854000,0.47185400390625,0.5023042097270488,-1.2528924215354025,-0.2025058551162481,0.0618326663970947,-0.1109998300671577,0.2023519724607467,walking
1783090486712899000,0.481899169921875,0.5052195126518607,-1.2481539948366582,-0.0362374345511198,0.0187523085623979,-0.1266898512840271,0.2025216072797775,walking
1783090486722942700,0.491942626953125,0.6211026577826589,-1.2102012808002531,0.0834025058299303,-0.0262882262468338,-0.1514271944761276,0.2126072496175766,walking
1783090486732987000,0.50198681640625,0.6379206677231938,-1.1026266028746965,0.0755921243399381,-0.0477999076247215,-0.1740669906139373,0.2232220768928527,walking
1783090486743032000,0.512031982421875,0.5736045551571994,-1.07958168124333,0.0286275440692901,-0.0360353030264377,-0.1814288645982742,0.2305841296911239,walking
1783090486753075700,0.52207568359375,0.5512704121436923,-1.1134729910597203,0.0302320566564798,-0.0147313484922051,-0.2007735222578048,0.2355179041624069,walking
1783090486763121000,0.532120849609375,0.5414006139058619,-1.14730994034037,-0.0004272855013608,-0.0029717164579778,-0.2312002032995224,0.2469889223575592,walking
1783090486773165000,0.5421650390625,0.5909351177297533,-1.1478342564754187,0.0092769469112157,0.0042233457788825,-0.2669880092144012,0.2656196057796478,walking
1783090486783209000,0.552208984375,0.7276645054038614,-1.118631835127622,0.0654857408672571,0.0248934719711542,-0.2834881544113159,0.2755601406097412,walking
1783090486793254000,0.56225390625,0.7835007397204637,-1.119667754046619,0.0754652830898761,0.0575041435658931,-0.2830055952072143,0.2749545276165008,walking
1783090486803298000,0.572298095703125,0.8014904237888753,-1.0977508135318756,0.0494078817695379,0.0889719724655151,-0.2676825523376465,0.2638303637504577,walking
1783090486813342000,0.582342041015625,0.8252389636449515,-1.0496272724844515,0.0654886634767055,0.0993503108620643,-0.2311383932828903,0.2597645223140716,walking
1783090486823387000,0.592386962890625,0.7426433902837336,-1.003659594296664,0.0812801068484783,0.079842522740364,-0.2008347958326339,0.260772168636322,walking
1783090486833431000,0.60243115234375,0.6836372206941247,-1.057334924252331,0.1630804381787776,0.0470883026719093,-0.1684864461421966,0.2665160596370697,walking
1783090486843475700,0.612475830078125,0.7041621223285793,-1.1415171822831034,0.179859139022231,0.0154262911528348,-0.1476150602102279,0.2630843818187713,walking
1783090486853520000,0.622519775390625,0.7068669973731041,-1.2527603195883332,0.1049374612897634,0.0002340227365493,-0.1383781433105468,0.2455434799194336,walking
1783090486863565000,0.63256494140625,0.7270955464094877,-1.360485658030957,0.0558756164789199,0.0294287912547588,-0.1582632660865783,0.2240967154502868,walking
1783090486873608700,0.642608642578125,0.7578276615425944,-1.418044259160757,-0.1162713407307863,0.098100796341896,-0.1724611073732376,0.2010686248540878,walking
1783090486883652900,0.65265283203125,0.7529901583835482,-1.4447972415298225,-0.2865250315397977,0.1713437288999557,-0.191129446029663,0.175928309559822,walking
1783090486893698000,0.662697998046875,0.7339017192929983,-1.403060186649114,-0.3326543300300836,0.213915154337883,-0.2237763404846191,0.1632231622934341,walking
1783090486903742000,0.672741943359375,0.7586150125280022,-1.2815832400992513,-0.2506710433483123,0.2312567234039306,-0.2664311528205871,0.1718228459358215,walking
1783090486913787000,0.682786865234375,0.7028421257711946,-0.984064813119173,-0.1648696596831083,0.2307589799165725,-0.2729828059673309,0.2227326333522796,walking
1783090486923831000,0.6928310546875,0.5762054583705961,-0.522442157870531,-0.1832324148476123,0.2215754240751266,-0.2711294591426849,0.3079175651073456,walking
1783090486933875000,0.702875,0.6309444720350206,-0.0889320829063654,-0.0550794976651668,0.204455554485321,-0.2762419283390045,0.402288019657135,walking
1783090486943919900,0.712919921875,0.7582851960517466,0.1790812865175306,0.0138835639238357,0.1749684661626815,-0.2969342172145843,0.4751389622688293,walking
1783090486953964000,0.722964111328125,0.8157179788447916,0.3003413754463195,-0.0627034166723489,0.1392288506031036,-0.3231362700462341,0.5337748527526855,walking
1783090486964008000,0.733008056640625,0.8188080538146197,0.3043430123031139,-0.2401853051692247,0.1108287945389747,-0.3409257233142853,0.5994051694869995,walking
1783090486974052900,0.743052978515625,0.7517284678846597,0.3295289645511657,-0.4054968634009361,0.1023298501968383,-0.3535826802253723,0.6802734136581421,walking
1783090486984097000,0.753096923828125,0.7756238688655197,0.3748195471949875,-0.4837351183354854,0.1232395321130752,-0.3620624840259552,0.7930700182914734,walking
1783090486994141700,0.7631416015625,0.8449412968501449,0.5032216168329119,-0.5499041652917862,0.1586609035730362,-0.3714237809181213,0.9269309043884276,walking
1783090487004185900,0.773185791015625,1.005190457125753,0.7712374704748391,-0.5298474656909704,0.2061511129140854,-0.3843876123428345,1.0640665292739868,walking
1783090487014230000,0.78322998046875,1.1235177074730396,1.0948637868534774,-0.5483411537587642,0.2630838751792907,-0.3685596585273742,1.1932793855667114,walking
1783090487024275000,0.79327490234375,1.0286787386104463,1.2390107573077085,-0.5968892038285732,0.2979948222637176,-0.3278471827507019,1.278945803642273,walking
1783090487034318800,0.80331884765625,0.8420973055958747,1.1312499822255224,-0.5688444280833006,0.2959132790565491,-0.2571892738342285,1.3121490478515625,walking
1783090487044364000,0.813364013671875,0.4644678155466913,0.9377266211185604,-0.5907967321723699,0.2705274820327759,-0.1438292860984802,1.2986823320388794,walking
1783090487054408000,0.823407958984375,0.0118688631005585,0.8062324306841939,-0.7076935113251209,0.2392736822366714,0.0194206349551677,1.2783464193344116,walking
1783090487064451800,0.833451904296875,-0.3373946564249694,0.8129008755974471,-0.7877402769863605,0.208840861916542,0.1823223233222961,1.247666358947754,walking
1783090487074497000,0.8434970703125,-0.3554728955596685,0.7589429293081164,-0.6782815388798713,0.1963431686162948,0.3131575584411621,1.205207347869873,walking
1783090487084541000,0.853541015625,-0.247818284265697,0.751710859162733,-0.5704506942361592,0.2005405873060226,0.3850431740283966,1.150740385055542,walking
1783090487094585900,0.8635859375,-0.0826890968635678,0.7338625563263893,-0.4437976602226495,0.2237915694713592,0.3977773487567901,1.084345459938049,walking
1783090487104630000,0.873630126953125,0.0603008855752646,0.6499007361132652,-0.2272860761076212,0.2733089029788971,0.3646745681762695,1.0087231397628784,walking
1783090487114674000,0.883673828125,0.0721757400251924,0.5726701969165354,0.0798959590137004,0.3110280632972717,0.2676971554756164,0.9250026345252992,walking
1783090487124718800,0.89371875,0.0088667586751282,0.4872423227388411,0.4580196623206138,0.3032300472259521,0.0965436846017837,0.8583779335021973,walking
1783090487134763000,0.903762939453125,0.0532682104595005,0.4911912064950913,0.7628256159603596,0.2648586928844452,-0.1073346063494682,0.8151218295097351,walking
1783090487144808000,0.913807861328125,0.1449877321273088,0.4903352472528815,0.952997474682331,0.2210008054971695,-0.3459252417087555,0.792913019657135,walking
1783090487154851800,0.923851806640625,0.1100289392098784,0.457424326775968,1.1584995890051126,0.1873863786458969,-0.592047929763794,0.7786323428153992,walking
1783090487164896000,0.93389599609375,-0.0161971015632152,0.3810761233717203,1.2808102099001406,0.168254017829895,-0.8174018859863281,0.7589868307113647,walking
1783090487174941000,0.94394091796875,-0.1626354708902537,0.2914013323392719,1.3071814994752406,0.1734277307987213,-0.9964675307273864,0.7233244180679321,walking
1783090487184984800,0.95398486328125,-0.3868905087389052,0.2178241280183196,1.1809037285149098,0.1739990711212158,-1.079716444015503,0.6670381426811218,walking
1783090487195030000,0.964030029296875,-0.5914565112553537,0.2387771188717335,0.9828566063731908,0.2465811222791671,-1.1003741025924685,0.6011837124824524,walking
1783090487205074000,0.974073974609375,-0.747998779837042,0.3299279007408768,1.025837085443735,0.3355566263198852,-0.989335834980011,0.5244443416595459,walking
1783090487215117800,0.984117919921875,-0.940563525044918,0.3643733373086899,0.5762479823380708,0.3481179773807525,-0.8138779997825623,0.4234056174755096,walking
1783090487225163000,0.9941630859375,-0.9737693368151784,0.326186741451174,0.1368763218641281,0.3240185678005218,-0.5899074673652649,0.3368907272815704,walking
1783090487235207000,1.00420703125,-1.019608858578652,0.2333472758427262,-0.3303478066533803,0.2921567857265472,-0.354982316493988,0.2698733210563659,walking
1783090487245251800,1.014251953125,-1.11940895697996,0.1037952324520796,-0.8695856165021657,0.266747385263443,-0.1263647377490997,0.2088346034288406,walking
1783090487255296000,1.0242958984375,-1.142536003936827,-0.0568377395093441,-1.4221762443989514,0.2678509950637817,0.1051672920584678,0.1527550816535949,walking
1783090487265340000,1.03433984375,-1.0643259521834552,-0.2221754550956189,-1.8596300885528323,0.2897207140922546,0.3148604929447174,0.0937644615769386,walking
1783090487275384800,1.044384765625,-0.9467091881930828,-0.3571082416765391,-1.99732824819386,0.3013920187950134,0.5028226375579834,0.0326955132186412,walking
1783090487285429000,1.054428955078125,-0.8449674542047083,-0.3973473861496895,-1.85006731043756,0.2725936472415924,0.6482658982276917,-0.0176224876195192,walking
1783090487295474000,1.064473876953125,-0.7039267061375081,-0.3825044026091694,-1.439568108704686,0.1828389912843704,0.7156939506530762,-0.055920872837305,walking
1783090487305517800,1.074517822265625,-0.4204439649030566,-0.2487437285475432,-0.8116600817561149,0.0526742339134216,0.6982902884483337,-0.0667285099625587,walking
1783090487315562000,1.08456201171875,-0.2054796102300286,-0.0416914621733129,-0.1888900022178888,-0.0889108628034591,0.6190857291221619,-0.0544715747237205,walking
1783090487325607000,1.09460693359375,-0.1910463034689426,0.0975107453551143,0.1959323219448328,-0.2057321518659591,0.4968699216842651,-0.014707326889038,walking
1783090487335650800,1.10465087890625,-0.2692223068222403,0.1733884817034006,0.4634422718912362,-0.2690541446208954,0.3533098399639129,0.0523963458836078,walking
1783090487345696000,1.114696044921875,-0.3451858948230743,0.1299783059787005,0.5556137751102447,-0.2356963455677032,0.1815178096294403,0.1404530853033065,walking
1783090487355740000,1.124739990234375,-0.4369881263382733,0.0741449942715466,0.5932575693279505,-0.1094398722052574,-0.0128053408116102,0.2304780483245849,walking
1783090487365783800,1.13478369140625,-0.5402367577582597,0.1507826821416616,0.6199041687130927,0.0477979108691215,-0.2277642041444778,0.3236968517303467,walking
1783090487375829000,1.1448291015625,-0.5221900828056038,-0.1160777178548276,0.5674608647704125,0.1686982363462448,-0.3909267783164978,0.3804077804088592,walking
1783090487385873000,1.154872802734375,-0.4089033108435571,-0.2529297089952975,0.3631166883111,0.2310103774070739,-0.4843311905860901,0.408036857843399,walking
1783090487395917800,1.164917724609375,-0.3383449428871273,-0.2223679089277982,0.3909446064352989,0.2303139567375183,-0.5268040299415588,0.4182692468166351,walking
1783090487405962000,1.1749619140625,-0.165493052278459,-0.2636442144289612,0.5085024798452854,0.1782193034887313,-0.5348979234695435,0.4108892977237701,walking
1783090487416006000,1.185005859375,0.1893053050205111,-0.1839720542337745,0.632500030913949,0.1126059293746948,-0.5446669459342957,0.4218897521495819,walking
1783090487426050800,1.19505078125,0.6037379006795585,-0.0084499215025454,0.8615098620742558,0.0595606826245784,-0.5494495630264282,0.4577138721942901,walking
1783090487436095000,1.205094970703125,0.8216229651048779,0.1334458359587937,0.8998860622197389,0.0328699499368667,-0.5317880511283875,0.5112420916557312,walking
1783090487446139000,1.215138916015625,0.8118566272415221,0.0891577083557844,0.7864549133509398,0.0404659993946552,-0.5102469325065613,0.5503572225570679,walking
1783090487456183800,1.225183837890625,0.687699501696974,-0.1806916443236172,0.7020049442946911,0.0736087784171104,-0.4872492253780365,0.5718452334403992,walking
1783090487466228000,1.23522802734375,0.4869713237777352,-0.4892827425252646,0.5793401031345129,0.1153150722384452,-0.4698453545570373,0.5710359811782837,walking
1783090487476273000,1.24527294921875,0.3365526526428758,-0.7015123384721577,0.4527653950542211,0.1549277305603027,-0.4735223948955536,0.5796206593513489,walking
1783090487486316800,1.25531689453125,0.4200356763631105,-0.6391527668014169,0.4129933566361665,0.1836083829402923,-0.4572229087352752,0.5964819192886353,walking
1783090487496361000,1.26536083984375,0.6138352240629494,-0.5571543556157499,0.3740291274696588,0.1911563128232956,-0.4110676646232605,0.5966987013816833,walking
1783090487506406000,1.275406005859375,0.7056076449617743,-0.6296097162999212,0.3916998087167739,0.1575026512145996,-0.3337937593460083,0.5739778280258179,walking
1783090487516450000,1.285449951171875,0.5850982282698154,-0.67925630219616,0.3862620015770197,0.0881278365850448,-0.2382313013076782,0.5496634244918823,walking
1783090487526495000,1.295494873046875,0.3439366254143416,-0.718345107590407,0.4647030856072902,0.017317621037364,-0.1395997852087021,0.5326151251792908,walking
1783090487536539000,1.305538818359375,0.0481986521102488,-0.8089923969168216,0.5931582006067038,-0.0442927479743957,-0.0433227829635143,0.5260299444198608,walking
1783090487546583000,1.3155830078125,-0.1640969217449426,-0.8131270855687558,0.6621762072533368,-0.0903350710868835,0.0417328476905822,0.5256315469741821,walking
1783090487556628000,1.3256279296875,-0.2972093610309064,-0.8621148422300815,0.7034574811905622,-0.1116185188293457,0.1290461868047714,0.5115700364112854,walking
1783090487566672000,1.335671875,-0.3312944398537278,-1.0676385107975452,0.5785194344013929,-0.1216079965233802,0.2295651286840438,0.4574078023433685,walking
1783090487576716800,1.345716796875,-0.3653540919743478,-1.2892454452902078,0.3308230229496955,-0.1372716426849365,0.2934756577014923,0.3996350467205047,walking
1783090487586761000,1.355760986328125,-0.3091879681162536,-1.472363439977914,0.1626040528386831,-0.1529317796230316,0.3291400372982025,0.3562465012073517,walking
1783090487596804900,1.365804931640625,-0.0573380902469158,-1.671166787314415,-0.049929859817028,-0.1518209874629974,0.3309288918972015,0.324906438589096,walking
1783090487606849800,1.375849853515625,0.3520249470628798,-1.7444468353196978,-0.1838333033502101,-0.1331847012042999,0.3435358703136444,0.2900035381317138,walking
1783090487616894000,1.38589404296875,0.6001996435508131,-1.7116323609545825,-0.0413005631595849,-0.1085304915904998,0.2338104546070099,0.2510207295417785,walking
1783090487626939000,1.39593896484375,0.8263602227598428,-1.7891668515339492,0.2696674202412367,-0.0793824568390846,0.1508027762174606,0.2398729920387268,walking
1783090487636983000,1.405983154296875,1.06629827516973,-1.7677178207919,0.1548848567634821,-0.0493012592196464,0.0201555471867322,0.2424256354570388,walking
1783090487647027000,1.41602685546875,1.0599078434802591,-1.5979823086380958,0.2973451162397861,0.0375231131911277,-0.1554769575595855,0.2542708814144134,walking
1783090487657071900,1.42607177734375,0.7129207444541156,-1.4428162968456744,0.3606196107983589,0.128088966012001,-0.3036976158618927,0.2580626904964447,walking
1783090487667116000,1.436115966796875,0.1867614657565951,-1.5122373313352464,-0.1094873796790838,0.1901383697986602,-0.3856340050697326,0.2526478469371795,walking
1783090487677161000,1.446160888671875,-0.5996523849315941,-1.55527991585657,-0.6157815358251333,0.2654589414596557,-0.3508104979991913,0.3096386790275574,walking
1783090487687205400,1.456205322265625,-1.5985852429673075,-0.9953254811935126,-1.3671756571888922,0.3553000092506408,-0.1144926622509956,0.4700910151004791,walking
1783090487697249300,1.466249267578125,-1.7966734277717769,0.0927935075748711,-2.365620293316245,0.4221434891223907,0.217008575797081,0.724770188331604,walking
1783090487707294200,1.476294189453125,-0.4942220255583524,1.2981380690589546,-2.9048733007341623,0.3816674053668976,0.5138791799545288,0.9735174179077148,walking
1783090487717338400,1.48633837890625,1.2120109605707228,2.0845234243050217,-3.08546601472795,0.2515778541564941,0.6775554418563843,1.1201092004776,walking
1783090487727383300,1.49638330078125,2.204590211796015,2.0670655090257526,-2.8330601104110475,0.1381765902042389,0.697948157787323,1.14969003200531,walking
1783090487737427200,1.50642724609375,2.187819548128545,1.577232804467529,-2.14583830922842,0.1104211211204528,0.5734832286834717,1.1571615934371948,walking
1783090487747471400,1.516471435546875,1.142566837466508,1.0718962413072586,-1.3129419626981018,0.1353522539138794,0.3788940608501434,1.1403006315231323,walking
1783090487757516300,1.526516357421875,0.138367583335191,0.2602228616781533,-0.4745318211823701,0.1502385288476944,0.1651932448148727,1.0923525094985962,walking
1783090487767560200,1.536560302734375,-0.3016010201185941,-0.3766936705037951,0.2384451835036277,0.1627233773469925,-0.0461576059460639,1.0245903730392456,walking
1783090487777605400,1.54660546875,-0.7598822559848427,-0.6301720263577998,0.660605596935749,0.169594332575798,-0.1876175254583358,0.909362256526947,walking
1783090487787649300,1.556649169921875,-1.0546725731752813,-0.571401930546388,0.7165361584722996,0.1395137459039688,-0.3255631029605865,0.7769198417663574,walking
1783090487797693200,1.566693115234375,-1.1727299205400048,-0.3594210486635565,0.6306184549510478,0.1151892393827438,-0.4979958832263946,0.669059157371521,walking
1783090487807738400,1.57673828125,-1.1019468039169906,-0.213600957365334,0.5306225417166948,0.1254494190216064,-0.6742430925369263,0.604412853717804,walking
1783090487817782300,1.5867822265625,-0.7943613025613129,0.0705993575539439,0.3343991278707981,0.1771666854619979,-0.7815660834312439,0.5734238028526306,walking
1783090487827827200,1.5968271484375,-0.7278409579493105,0.4024586647488176,0.0034270518392324,0.2302364259958267,-0.8290886878967285,0.5522271394729614,walking
1783090487837871400,1.606871337890625,-0.1875350804775953,0.6852201059713959,-0.121409872663021,0.2635091543197632,-0.8315544724464417,0.5673868656158447,walking
1783090487847915300,1.616915283203125,0.4293389267593622,1.2024800388984382,-0.06702829413414,0.2569185793399811,-0.8351414799690247,0.6115188002586365,walking
1783090487857960200,1.626960205078125,1.145280480339378,1.5748416715472937,0.1692097347140312,0.2116754800081253,-0.8455246090888977,0.6620928049087524,walking
1783090487868004400,1.63700439453125,1.4006472802884875,1.638075834095478,0.2164186451345682,0.1542854607105255,-0.7881134748458862,0.70345538854599,walking
1783090487878049300,1.64704931640625,1.127315930712223,1.4732158190235494,0.1307511169821024,0.0964583829045295,-0.6795878410339355,0.7629128694534302,walking
1783090487888093200,1.65709326171875,0.7779892828226089,1.3139007247276604,0.3946265098184346,0.0460706613957881,-0.571816086769104,0.8350021243095398,walking
1783090487898137300,1.667137451171875,0.7712813096165657,1.3090749120064078,0.8894394870072603,0.0017271649558097,-0.4951708316802978,0.9172290563583374,walking
1783090487908182300,1.677182373046875,0.7629045264154672,1.3028672895379363,1.3019465214312076,-0.0425447337329387,-0.449846863746643,0.9762598276138306,walking
1783090487918226200,1.68722607421875,0.7667801988050341,1.1470284930504857,1.5208517226845024,-0.0880552232265472,-0.4430467486381531,1.00079607963562,walking
1783090487928271400,1.697271240234375,0.784335729239881,0.8891607431311159,1.5647165833741423,-0.1259942203760147,-0.4571250379085541,0.9996131658554076,walking
1783090487938315300,1.707315185546875,0.7429100783959031,0.633733152905479,1.4410072015970945,-0.1311533004045486,-0.4721876084804535,0.9867634177207948,walking
1783090487948359200,1.717359130859375,0.6183896724969148,0.5049922067020088,1.085871575167775,-0.095735028386116,-0.4597770273685455,0.984529972076416,walking
1783090487958404400,1.727404296875,0.5975263326883316,0.5765465999584645,0.6963181308299302,-0.02203338034451,-0.4191387593746185,0.9953940510749816,walking
1783090487968448300,1.7374482421875,0.719655459536612,0.6066179861605167,0.4301280313104391,0.0743072256445884,-0.3829056024551391,1.0022228956222534,walking
1783090487978493200,1.7474931640625,0.7891805389225482,0.6226887579303234,0.2238812361001968,0.1783630549907684,-0.3342573642730713,0.9912964701652528,walking
1783090487988537300,1.757537353515625,0.9063803926751016,0.6491950720619409,-0.0351607452303171,0.2681593894958496,-0.2554157972335815,0.9752108454704284,walking
1783090487998581200,1.767581298828125,1.0436150264576076,0.6201949683532119,-0.3729471774518489,0.3300826847553253,-0.1534977108240127,0.9405378103256226,walking
1783090488008626200,1.777626220703125,1.048716733510792,0.4122380812894552,-0.6457201624929905,0.3570847809314728,-0.0347731113433837,0.8830364942550659,walking
1783090488018670300,1.78767041015625,1.063983860747516,0.0503474276419729,-0.7753770544975995,0.3445628583431244,0.0698046907782554,0.78992760181427,walking
1783090488028714200,1.79771435546875,1.044621573151648,-0.4519854967229068,-0.7509627442091703,0.2923957407474518,0.1240904629230499,0.6544969081878662,walking
1783090488038759200,1.80775927734375,0.9522612693622708,-0.8947510374188422,-0.6351701269060372,0.2091844826936721,0.1264383047819137,0.5000367760658264,walking
1783090488048803300,1.81780322265625,0.8914312453463673,-1.0831751026254146,-0.498221324327588,0.1181627884507179,0.0536692626774311,0.3643853068351745,walking
1783090488058848300,1.82784814453125,0.9116267688959836,-0.9986327791105956,-0.3483031500607729,0.0285130627453327,-0.0555323250591754,0.2768722474575043,walking
1783090488068892200,1.83789208984375,0.8649825066208839,-0.7480793707925826,-0.3094955727607011,-0.0585019923746585,-0.2010984569787979,0.2423291653394699,walking
1783090488078936300,1.847936279296875,0.7461229029625653,-0.6003371523253619,-0.1066910269588232,-0.1250147074460983,-0.3889203071594238,0.2410143613815307,walking
1783090488088981200,1.857981201171875,0.6910235315531492,-0.529208583265543,0.23939210896492,-0.1433753818273544,-0.602240800857544,0.2565595805644989,walking
1783090488099025200,1.868025146484375,0.6989195454999804,-0.457731712224707,0.5572106889128685,-0.0989056527614593,-0.7935572266578674,0.2728700935840606,walking
1783090488109070300,1.8780703125,0.689554335783422,-0.3652013856306672,0.8019885825693607,-0.0128902997821569,-0.9273208975791932,0.2953425943851471,walking
1783090488119114200,1.8881142578125,0.6942813643053174,-0.2326850125417113,1.021640802797675,0.0728485733270645,-0.9796594977378844,0.3424549698829651,walking
1783090488129158100,1.898158203125,0.6328820159688592,-0.053638505076617,1.138414832353592,0.1164697334170341,-0.9379146695137024,0.4079084396362304,walking
1783090488139203300,1.908203369140625,0.5120166254460812,0.1480437586970627,1.042868299743533,0.0920413509011268,-0.7984457015991211,0.4946712851524353,walking
1783090488149247200,1.918247314453125,0.4928635966867208,0.327754283028841,0.8934200810760259,0.0131996683776378,-0.5981247425079346,0.6074784398078918,walking
1783090488159292200,1.928292236328125,0.6429053973332047,0.5927738774642348,0.6988415118277073,-0.0754793286323547,-0.3550511002540588,0.7302501797676086,walking
1783090488169336300,1.93833642578125,0.8069950125545263,0.8070780146628618,0.3177957835942506,-0.1349429190158844,-0.093095913529396,0.8574478030204773,walking
1783090488179380200,1.948380126953125,0.9204141787245868,0.9344180080272256,-0.1493628784716129,-0.1490872353315353,0.1658773273229599,0.9650975465774536,walking
1783090488189425200,1.958425048828125,1.0316153765842315,0.8648444133244454,-0.57776014046669,-0.1268927752971649,0.4128376543521881,1.0447031259536743,walking
1783090488199469300,1.96846923828125,0.9242363673612476,0.6000139117203652,-1.0600240172058344,-0.0924770012497901,0.6532723903656006,1.0733230113983154,walking
1783090488209514500,1.978514404296875,0.6251578514575958,0.0925397520095109,-1.4243319611281156,-0.0662630200386047,0.8345316052436829,1.053558349609375,walking
1783090488219558100,1.98855810546875,0.2656932559132576,-0.527121547858417,-1.3902590111345052,-0.0659836530685424,0.9112809300422668,0.971436321735382,walking
1783090488229602300,1.998602294921875,-0.0275318577870726,-1.134075780235976,-1.1218377915620803,-0.0861203074455261,0.873902440071106,0.8512948751449585,walking
1783090488239647200,2.008647216796875,-0.0344821153163909,-1.513370134757459,-0.7387988436847924,-0.1089686304330825,0.7448856234550476,0.7257835865020752,walking
1783090488249691100,2.018691162109375,0.0493614122793078,-1.610048301745951,-0.4850958852946758,-0.1286134719848632,0.5644235610961914,0.6141098737716675,walking
1783090488259736300,2.028736328125,0.2990671177268028,-1.54928842035681,-0.3654284723848104,-0.1272648572921753,0.3609849512577057,0.5164554715156555,walking
1783090488269780200,2.0387802734375,0.4955456753775477,-1.539893984545767,-0.2944207532256842,-0.0943159162998199,0.1689461171627044,0.4299750924110412,walking
1783090488279824400,2.048824462890625,0.46116935852319,-1.567864672141522,-0.298604176390171,-0.0361618027091026,0.0121695473790168,0.3617757856845855,walking
1783090488289869300,2.058869384765625,0.3376400094881653,-1.591525387583673,-0.2520855863213539,0.0362778678536415,-0.0994806513190269,0.3113563060760498,walking
1783090488299913200,2.068913330078125,0.1784694382295012,-1.6299423581309616,-0.0224959094464778,0.10788094997406,-0.1466803848743438,0.2661323547363281,walking
1783090488309958100,2.078958251953125,0.1774237285688519,-1.6431193812206386,0.1582224767535925,0.1605377197265625,-0.1323986947536468,0.2314872592687606,walking
1783090488320002300,2.089002197265625,0.2872328875482082,-1.5956874756991863,0.2993640548467636,0.1904705911874771,-0.0778752565383911,0.2021706402301788,walking
1783090488330046200,2.099046142578125,0.256246213132143,-1.5392857895195484,0.2893307366102933,0.1913734376430511,0.0022242884151637,0.186386689543724,walking
1783090488340091100,2.109091064453125,0.1964846951305866,-1.531290699112415,0.2773684961378574,0.1596139222383499,0.081106849014759,0.1777601689100265,walking
1783090488350135300,2.11913525390625,0.270410932084918,-1.6013476934179662,0.292371419480443,0.1074429005384445,0.1400316208600998,0.1731058359146118,walking
1783090488360180500,2.129180419921875,0.422013406176865,-1.6135643470428882,0.3887280994296073,0.0569016933441162,0.1592476516962051,0.1732033044099807,walking
1783090488370224000,2.13922412109375,0.5011123695939779,-1.6296876527175306,0.3039227410644293,0.0369400158524513,0.1578762382268905,0.1906557381153106,walking
1783090488380268300,2.149268310546875,0.5453755819514393,-1.6226880030885338,0.064260582986474,0.0632885321974754,0.122924655675888,0.2298332452774047,walking
1783090488390313200,2.159313232421875,0.511382711456716,-1.4273790737390517,-0.111764092439413,0.1220419406890869,0.073211945593357,0.2933263480663299,walking
1783090488400357000,2.169357177734375,0.3289326791584491,-1.0999245043091477,-0.134916419968009,0.1706161350011825,0.0223255977034568,0.3814945518970489,walking
1783090488410402300,2.17940234375,0.182602592511475,-0.7754337531208991,-0.0262976398169994,0.1910353600978851,-0.052218209952116,0.4712086319923401,walking
1783090488420446200,2.1894462890625,0.2200271910205483,-0.5764873440518975,0.2012672532320022,0.1753011345863342,-0.1736373156309127,0.5117992162704468,walking
1783090488430490400,2.199490478515625,0.3106248690515756,-0.6569143412023782,0.3838789058327674,0.1431840360164642,-0.338740199804306,0.4676162898540497,walking
1783090488440535300,2.209535400390625,0.2801230555430054,-0.9108379566058517,0.3961953665703535,0.1154493391513824,-0.4981665909290313,0.3926909267902374,walking
1783090488450579200,2.2195791015625,0.3586287292420864,-1.073644838540256,0.1958475662708282,0.0829149633646011,-0.6492197513580322,0.3455539643764496,walking
1783090488460624100,2.2296240234375,0.5930339897051453,-1.1639271670117974,-0.152839030149579,0.0414884276688098,-0.7600205540657043,0.334762305021286,walking
1783090488470668300,2.239668212890625,0.8426566930443048,-1.11481198457852,-0.5972691430568695,0.0091852592304348,-0.8235182166099548,0.3627049922943115,walking
1783090488480712200,2.249712158203125,1.062715448246896,-0.770950470227003,-0.8553343883097171,-0.0080677643418312,-0.8606696128845215,0.4435599148273468,walking
1783090488490757000,2.259757080078125,1.3015382328912617,-0.142974931000173,-0.8553098383903502,0.0059546269476413,-0.8890017867088318,0.5851438045501709,walking
1783090488500801300,2.26980126953125,1.3826821461394427,0.5282770015038549,-0.6813549549758434,0.0503117032349109,-0.8944231867790222,0.754073977470398,walking
1783090488510846500,2.279846435546875,1.3438535260513425,0.9958533044598996,-0.2934580456733703,0.1087737753987312,-0.8937033414840698,0.9269463419914246,walking
1783090488520890000,2.28989013671875,1.3097948968440294,1.2622225599385797,0.3502724043071269,0.1725697964429855,-0.8978296518325806,1.0893778800964355,walking
1783090488530934300,2.299934326171875,1.242851066122949,1.3954120099835097,0.9434276823043822,0.2482350915670395,-0.9124602675437928,1.2309935092926023,walking
1783090488540979500,2.3099794921875,1.1285925265192984,1.387267720364034,1.283579090091586,0.3113810122013092,-0.8996241092681885,1.3582019805908203,walking
1783090488551023400,2.3200234375,0.8956292815580964,1.3379912098892033,1.3495318639487028,0.3472208380699157,-0.8770612478256226,1.49318265914917,walking
1783090488561068300,2.330068359375,0.7254536244213581,1.3893731682106851,1.305157300171256,0.3767560720443725,-0.8336852788925171,1.613972544670105,walking
1783090488571112200,2.3401123046875,0.7547244348302483,1.3995226601727306,0.8295423599272966,0.4106166958808899,-0.7353313565254211,1.679160714149475,walking
1783090488581156400,2.35015625,0.6979469010755419,1.254120063634217,-0.0171066176235675,0.4473882913589477,-0.5574894547462463,1.6814454793930054,walking
1783090488591201300,2.360201171875,0.5361129558265209,1.0943699389219284,-1.0201222149282694,0.4585050344467163,-0.314010739326477,1.632647156715393,walking
1783090488601245200,2.3702451171875,0.1098240642875433,0.8212912489324807,-1.6995698749780654,0.4548250734806061,-0.030883677303791,1.5678995847702026,walking
1783090488611290000,2.3802900390625,-0.3590802724018693,0.5551584325581789,-2.1014777739763257,0.4573775231838226,0.2803438305854797,1.496321678161621,walking
1783090488621334300,2.390334228515625,-0.5060772985249757,0.3207411893963813,-2.1456588610082865,0.473866730928421,0.5453717708587646,1.3955960273742676,walking
1783090488631378200,2.400378173828125,-0.280662861508131,0.0799164172798395,-1.8200147020012136,0.5063243508338928,0.7359144687652588,1.2401143312454224,walking
1783090488641423000,2.410423095703125,-0.0174330730989575,-0.1535742125563323,-1.3427303672403097,0.5550346374511719,0.8560144901275635,1.0307592153549194,walking
1783090488651467300,2.42046728515625,0.0838604787304997,-0.4379344672776758,-0.848238292568922,0.6042540669441223,0.905706822872162,0.7880199551582336,walking
1783090488661512400,2.430512451171875,0.0034761516779661,-0.6097007546067238,-0.4212871377289295,0.6350542902946472,0.8566263914108276,0.5787676572799683,walking
1783090488671556400,2.440556396484375,-0.1841527445629239,-0.5606687204122544,-0.0772404760688543,0.6445877552032471,0.7100975513458252,0.4369056820869446,walking
1783090488681599700,2.450599853515625,-0.3242339999482035,-0.4246877399526536,0.0992740287005901,0.6295371651649475,0.4984760880470276,0.3694145381450653,walking
1783090488691644700,2.460644775390625,-0.277406490060687,-0.3589402794092893,0.0470592728167772,0.6010249257087708,0.2663048505783081,0.3570615649223327,walking
1783090488701688800,2.470688720703125,-0.3464990232482552,-0.3580766483172774,-0.2247311309278011,0.5808173418045044,0.0652801394462585,0.3837131559848785,walking
1783090488711733500,2.4807333984375,-0.5537944507285952,-0.2560292093805968,-0.6005126550227403,0.5781735777854919,-0.0765538811683654,0.4495389759540558,walking
1783090488721777700,2.490777587890625,-0.6732412066251039,-0.0880231513679027,-0.8566162448137998,0.6036525964736938,-0.1415491253137588,0.5414238572120667,walking
1783090488731821800,2.50082177734375,-0.6186828102245926,0.1346834879949688,-1.0219459232240915,0.6582368016242981,-0.1542416661977768,0.6462208032608032,walking
1783090488741866500,2.510866455078125,-0.6412061921998858,0.5349532643973827,-1.1368979980498553,0.736165463924408,-0.1390166282653808,0.7555899024009705,walking
1783090488751910700,2.52091064453125,-0.6991860874816775,0.7888783411055803,-1.1149562153548,0.8006517291069031,-0.078752800822258,0.8694166541099548,walking
1783090488761954800,2.530954833984375,-0.591410187895596,0.9622009179659188,-0.7319359721779823,0.8046408891677856,-0.0256669484078884,0.9735901951789856,walking
1783090488771999500,2.54099951171875,-0.4985469030201435,0.9755721484534442,-0.1973164697796106,0.7381163239479065,0.0177900902926921,1.0510203838348389,walking
1783090488782043600,2.551043701171875,-0.392059581939876,0.7817495852041989,0.1837140608847141,0.6176463961601257,0.0700692757964134,1.079011082649231,walking
1783090488792088800,2.5610888671875,-0.2378556931778788,0.4791890724036842,0.418710565239191,0.4837778806686401,0.0775272399187088,1.0745279788970947,walking
1783090488802132500,2.571132568359375,-0.101487905357778,0.2040914438072592,0.7367378195017575,0.3883925080299377,0.0275386404246091,1.0703142881393433,walking
1783090488812176600,2.5811767578125,-0.0089428926512599,-0.0418617772389203,0.8419891690462827,0.3568865358829498,-0.0550404116511344,1.0819214582443235,walking
1783090488822221800,2.591221923828125,0.0338119609698653,-0.3063983373977244,0.733667326015234,0.3885829448699951,-0.1721025854349136,1.1129333972930908,walking
1783090488832265700,2.601265625,-0.0006350830331444,-0.572274256401509,0.5223755223751068,0.4533782005310058,-0.2609001100063324,1.151365041732788,walking
1783090488842310700,2.611310546875,-0.049045770458877,-0.7142889640673995,0.3506903374582529,0.5002785921096802,-0.3223293721675873,1.1937623023986816,walking
1783090488852354800,2.621354736328125,-0.0251844178780913,-0.7443892841029912,0.3320797450125217,0.5032868385314941,-0.3686124384403229,1.2304821014404297,walking
1783090488862398700,2.631398681640625,0.0039279870986938,-0.6957054057590663,0.3893529533296823,0.4648832380771637,-0.3845336139202118,1.2643457651138306,walking
1783090488872443600,2.641443603515625,-0.004677344161272,-0.6306170667115598,0.4890028296053409,0.4019147157669067,-0.3790647387504577,1.2812210321426392,walking
1783090488882487800,2.65148779296875,0.0616410481378436,-0.6646467620853335,0.5670651434510946,0.3424071669578552,-0.3499302864074707,1.2944324016571045,walking
1783090488892532500,2.661532470703125,0.0398483185246586,-0.7344423289757221,0.564669772747159,0.3011552691459656,-0.3223738670349121,1.3039425611495972,walking
1783090488902576600,2.67157666015625,0.1491825534686446,-0.7596822033680976,0.580859860047698,0.2881960570812225,-0.2999249994754791,1.3232818841934204,walking
1783090488912620800,2.681620849609375,0.4031123063519596,-0.7187520078908651,0.5955974104523658,0.272012710571289,-0.2494796365499496,1.330599069595337,walking
1783090488922665500,2.69166552734375,0.2154974386364221,-0.7979548700738698,0.417321156707406,0.2464804649353027,-0.1764957010746002,1.3267923593521118,walking
1783090488932709600,2.701709716796875,0.0217713945642113,-0.8410382249969989,0.315232655107975,0.2283521443605423,-0.128131166100502,1.37147057056427,walking
1783090488942754800,2.7117548828125,0.4669894429787993,-0.6790758310627192,0.4611497770398854,0.2521365582942962,-0.1189509779214859,1.4359798431396484,walking
1783090488952798700,2.721798828125,0.8879130080923437,-0.5815777259934694,0.34832711545825,0.3090919256210327,-0.1078719496726989,1.497104287147522,walking
1783090488962842600,2.731842529296875,0.8033455501362681,-0.5708258842241019,-0.0417132356137037,0.3571712970733642,-0.0682550370693206,1.552862524986267,walking
1783090488972887800,2.7418876953125,0.8170929204598069,-0.749692432012409,-0.2315653608620166,0.3734433650970459,-0.0164828803390264,1.6100475788116455,walking
1783090488982931700,2.751931640625,0.9260133139058948,-1.0119199845764786,-0.2308358775436878,0.3538811206817627,0.0124302608892321,1.6459232568740845,walking
1783090488992976600,2.7619765625,1.0702236319199203,-1.2886246830433603,-0.1123316631942987,0.3193836212158203,0.0249012783169746,1.6506963968276978,walking
1783090489003020800,2.772020751953125,0.9373170904695988,-1.5302620867170391,-0.1208376257330179,0.2982815206050873,0.0355347469449043,1.6232298612594604,walking
1783090489013064700,2.782064697265625,1.02791681432724,-1.741486816470325,-0.1528682562440633,0.3226118087768554,0.0320606976747512,1.5857542753219604,walking
1783090489023109600,2.792109619140625,1.2021619128599763,-1.893752576776594,-0.1754267095327377,0.364266037940979,0.0241702850908041,1.5526585578918457,walking
1783090489033153800,2.80215380859375,1.0057225181758402,-1.8756385356761511,-0.2821545613706112,0.4073502123355865,0.0347805134952068,1.5312539339065552,walking
1783090489043198500,2.812198486328125,0.7055342874646187,-1.7906597204402088,-0.3510872278213501,0.4562325179576874,0.0591604188084602,1.5128065347671509,walking
1783090489053242600,2.82224267578125,0.4140142241165042,-1.7944227262355386,-0.0999900680154562,0.5120773911476135,0.033083401620388,1.5086443424224854,walking
1783090489063286800,2.832286865234375,0.1659136157780885,-1.7011502760373054,0.3988701387375593,0.5669864416122437,-0.0794846937060356,1.5142608880996704,walking
1783090489073331700,2.842331787109375,-0.0646983898818492,-1.507062559045851,0.7665414216130971,0.6176893711090088,-0.2581942081451416,1.520001769065857,walking
1783090489083375600,2.852375732421875,-0.1020256654962897,-1.351560154905915,0.9397101230859756,0.6464453339576721,-0.4925451874732971,1.5170527696609497,walking
1783090489093420800,2.8624208984375,0.2627227156698704,-1.2346055080860852,0.9576876783251762,0.6360356211662292,-0.7468012571334839,1.506220817565918,walking
1783090489103464700,2.872464599609375,0.640497167147696,-1.0954229551061987,0.6837929957777261,0.5789505243301392,-0.9567103385925292,1.4997624158859253,walking
1783090489113508600,2.882508544921875,0.5372095188915729,-0.7864386198032647,0.2249877360373735,0.5092077255249023,-1.071456789970398,1.5032769441604614,walking
1783090489123553800,2.8925537109375,-0.1933028502240777,-0.530014712016657,-0.2827344070851803,0.4899325668811798,-1.0565431118011477,1.4921571016311646,walking
1783090489133597700,2.90259765625,-0.9029469110950828,-0.6155868900358676,-0.6879150441437959,0.5190044641494751,-0.948906660079956,1.4340882301330566,walking
1783090489143642600,2.912642578125,-0.9379346378460526,-0.9566898263942448,-0.6086807639092207,0.5659626722335815,-0.7974860072135925,1.3369625806808472,walking
1783090489153686800,2.922686767578125,-0.7185971826553345,-0.9990662751570344,-0.7015647993117571,0.581466019153595,-0.6181806325912476,1.2397679090499878,walking
1783090489163730700,2.932730712890625,0.160604987975955,-0.771491810562089,-1.1296253766983746,0.5547729134559631,-0.4389605522155761,1.181700587272644,walking
1783090489173775600,2.942775634765625,1.127634787403047,-0.5293897850513458,-1.7060674203038215,0.5027440190315247,-0.2298018485307693,1.1472623348236084,walking
1783090489183819800,2.95281982421875,1.465669056905806,-0.3025929537653923,-2.4428771359980104,0.4520496129989624,0.0302734076976776,1.1420702934265137,walking
1783090489193864700,2.96286474609375,1.336812083107233,-0.1820725042227655,-2.9457033237725496,0.4168382883071899,0.3075900375843048,1.1768015623092651,walking
1783090489203908600,2.97290869140625,0.9729875387877224,-0.0346237157441675,-3.0293934143722057,0.3837037682533264,0.5659701824188232,1.245323896408081,walking
1783090489213952800,2.982952880859375,0.7346165895640849,0.2859101875770837,-2.7061504712879656,0.3853077590465545,0.7253736853599548,1.330676555633545,walking
1783090489223997700,2.992997802734375,1.0247352616816758,0.6159031894434243,-2.0016426042616366,0.4277276694774627,0.7876216173171997,1.4125808477401731,walking
1783090489234041600,3.00304150390625,1.2172536835297942,0.9226900147020816,-1.3253648064196109,0.4659337401390075,0.8002241253852844,1.4952164888381958,walking
1783090489244086800,3.013086669921875,1.2115873283311724,1.0842246847435832,-0.8630237737685441,0.4619254171848297,0.7764397263526917,1.5833312273025513,walking
1783090489254130700,3.023130615234375,0.9488073295161128,1.1436677844457328,-0.4054126922488212,0.4367079138755798,0.7064562439918518,1.6709630489349363,walking
1783090489264174600,3.033174560546875,0.5560111038647592,1.1352752191536128,-0.019371639946103,0.4076690673828125,0.6124740839004517,1.7420616149902344,walking
1783090489274219800,3.0432197265625,0.4604097723275422,0.9933720821034164,0.4882569796741008,0.3805023729801178,0.4561591744422912,1.7689011096954346,walking
1783090489284263700,3.053263671875,0.6083535777814686,0.673605802153796,1.1029530583500862,0.3650107681751251,0.2665844261646271,1.766030192375183,walking
1783090489294308600,3.06330859375,0.5612533884324133,0.4250272741053253,1.3078402556449171,0.3460783362388611,0.0854807645082473,1.7498281002044678,walking
1783090489304352800,3.073352783203125,0.336710035161674,0.2475439973689615,1.3076573002934455,0.315966784954071,-0.0634253546595573,1.7187771797180176,walking
1783090489314396700,3.083396728515625,0.3500764433436095,-0.0172375505268573,1.268957275021076,0.2734638452529907,-0.1601668149232864,1.667803406715393,walking
1783090489324441600,3.093441650390625,0.3926641237042844,-0.1066748064763844,1.074245434781909,0.2087729722261428,-0.2009957283735275,1.6152487993240356,walking
1783090489334485800,3.10348583984375,0.4274887688480317,0.0030783845320343,0.7181143675744533,0.1272457689046859,-0.2173322588205337,1.6021051406860352,walking
1783090489344530700,3.11353076171875,0.9918722719997168,0.1790687192969024,0.499414918026328,0.0392107143998146,-0.2316685914993286,1.615723729133606,walking
1783090489354574600,3.12357470703125,1.51422163702026,0.294033945865184,0.282337516722083,-0.0430414155125618,-0.2226358652114868,1.6323648691177368,walking
1783090489364618800,3.13361865234375,1.770661911419779,0.2548572429917752,0.0239706581741571,-0.0929290801286697,-0.2453324049711227,1.655550837516785,walking
1783090489374663700,3.14366357421875,1.9309588563598692,0.1472485166661441,-0.2269932306408882,-0.0262406431138515,-0.2803233563899994,1.6868877410888672,walking
1783090489384707600,3.15370751953125,2.0053852979212996,0.0681198887631297,-0.5195131186813116,0.1243414133787155,-0.2892012894153595,1.711613416671753,walking
1783090489394752800,3.163752685546875,2.2707729950167237,-0.0460037724144756,-0.2621837864875793,0.2543158531188965,-0.3157106339931488,1.725727677345276,walking
1783090489404796700,3.173796630859375,2.4402869733743366,-0.1394236682593822,0.2497194417119026,0.2905633449554443,-0.3481567203998565,1.7191195487976074,walking
1783090489414840600,3.183840576171875,2.3220855413638053,-0.1954554982133209,0.5261451040416956,0.2426550984382629,-0.3510861694812774,1.7066700458526611,walking
1783090489424885800,3.1938857421875,2.157800257439911,-0.1889756346747279,0.6300052914887666,0.1765383929014206,-0.3111928403377533,1.6868646144866943,walking
1783090489434929700,3.2039296875,1.849796676802635,-0.1838420711785554,0.5695967077553272,0.1391113102436065,-0.2408992052078247,1.6775317192077637,walking
1783090489444974600,3.213974609375,1.6073700224474072,-0.1710164918750524,0.5279693968594074,0.1452565491199493,-0.1825717091560363,1.67729389667511,walking
1783090489455018800,3.224018798828125,1.5754267779588698,-0.220111654433608,0.5170604648321867,0.1877394169569015,-0.1299965381622314,1.6690895557403564,walking
1783090489465062700,3.234062744140625,1.431877992593497,-0.2586388073571026,0.3109603846162557,0.241686537861824,-0.0615855380892753,1.6538519859313965,walking
1783090489475107600,3.244107666015625,1.284046561472863,-0.2807327118739485,-0.057649055892229,0.2650314569473266,0.0205586813390254,1.6385822296142578,walking
1783090489485151700,3.25415185546875,1.1417518678218126,-0.4227196547500789,-0.4877630586773157,0.2475502043962478,0.1082978546619415,1.614431619644165,walking
1783090489495195600,3.264195556640625,0.9044621379636228,-0.5660536283209919,-0.7793810294419526,0.2049954682588577,0.1714697331190109,1.5806540250778198,walking
1783090489505240600,3.274240478515625,1.0377334210731088,-0.6998337377354502,-0.6003028116643429,0.1618064492940902,0.1961769461631775,1.5239462852478027,walking
1783090489515284700,3.28428466796875,1.3494962081134318,-0.7398344703428447,-0.2886567828714847,0.1359730362892151,0.2182767540216446,1.4371427297592163,walking
1783090489525329700,3.29432958984375,1.28796811883077,-0.801369720018655,-0.2488192780017852,0.1100154742598533,0.259473979473114,1.3453198671340942,walking
1783090489535373600,3.30437353515625,1.2172658123590052,-0.9311740576699375,-0.1904296328753232,0.0598648227751255,0.2835913598537445,1.2670410871505735,walking
1783090489545417700,3.314417724609375,1.2343696535035966,-1.0686850241757928,0.0478507154554128,0.0024968681391328,0.2721053957939148,1.207486629486084,walking
1783090489555462700,3.324462646484375,1.0298159259468316,-1.141756982388347,0.2386532732963562,-0.0299408342689275,0.2098111063241958,1.14925217628479,walking
1783090489565506800,3.3345068359375,0.9564159048236904,-1.214957243155688,0.4348381086975336,-0.0279495883733034,0.0919941812753677,1.1003562211990356,walking
1783090489575551700,3.3445517578125,1.0657431255050005,-1.2056763507217167,0.6022486850351095,-0.0059712347574532,-0.0673044696450233,1.0500131845474243,walking
1783090489585595600,3.354595703125,0.945307066310197,-1.1996321021214127,0.570298134022951,0.0225477591156959,-0.250760555267334,1.0295422077178955,walking
1783090489595639800,3.364639892578125,0.9185939775601027,-1.152325576545298,0.553897618842125,0.0536851249635219,-0.453634649515152,1.0318572521209717,walking
1783090489605684700,3.374684814453125,1.092137211433798,-1.100938065265864,0.4702104508519172,0.0853881910443306,-0.6152142286300659,1.0453089475631714,walking
1783090489615728600,3.384728759765625,1.1546518275357782,-1.007324546544999,0.1953191584825515,0.1217272132635116,-0.6922420263290405,1.0658737421035769,walking
1783090489625773600,3.394773681640625,1.263892831238359,-0.9484858424767852,-0.0228764331966638,0.1583925485610962,-0.68608158826828,1.0858018398284912,walking
1783090489635817700,3.404817626953125,1.4481500590890646,-0.88552801265195,-0.1930021137118339,0.1782650500535965,-0.622959315776825,1.1117318868637085,walking
1783090489645861600,3.414861572265625,1.6007548420913515,-0.7726938067629933,-0.2540723762243986,0.1821743100881576,-0.5482288599014282,1.1457277536392212,walking
1783090489655906600,3.424906494140625,1.7414166738435626,-0.631956279426068,-0.2648895383149385,0.1904776394367218,-0.4673919379711151,1.2165342569351196,walking
1783090489665950700,3.43495068359375,1.686784335424006,-0.4003140539355576,-0.3889250833064318,0.2021076679229736,-0.3673950433731079,1.3187525272369385,walking
1783090489675995600,3.44499560546875,1.5088506115064024,-0.3627871640957891,-0.4062865524739026,0.188096597790718,-0.264208436012268,1.4085025787353516,walking
1783090489686040000,3.4550400390625,1.2609988633625209,-0.4919207628786564,-0.3388812417209148,0.1407557129859924,-0.2003895044326782,1.4869234561920166,walking
1783090489696084000,3.465083984375,1.0632239822909235,-0.6444082031115889,-0.3163619513988495,0.033156331628561,-0.1691693663597107,1.5617811679840088,walking
1783090489706129200,3.475129150390625,1.0701417988553643,-0.7235577276721596,-0.4354436733752488,-0.0410915315151214,-0.207399308681488,1.5888991355895996,walking
1783090489716173000,3.485173095703125,0.9572441723413764,-0.74978843973279,-0.3764893801033496,-0.0266256462782621,-0.2036947458982467,1.6168946027755735,walking
1783090489726218200,3.49521826171875,0.5762221172444522,-0.5379832797430455,-0.6091729313403368,0.048571903258562,-0.1991785615682602,1.626501441001892,walking
1783090489736262100,3.50526220703125,0.4813771570324897,-0.4123436605557799,-0.6175386086255311,0.1461829245090484,-0.200556606054306,1.6004247665405271,walking
1783090489746306300,3.515306396484375,0.4686640981927514,-0.3219903126746415,-0.5462748688787221,0.2066633105278015,-0.2002029418945312,1.5559276342391968,walking
1783090489756351200,3.525351318359375,0.4004030473932624,-0.3804886788725852,-0.4803495675504207,0.2216084450483322,-0.1949979364871978,1.5060546398162842,walking
1783090489766395100,3.53539501953125,0.3073904171749949,-0.4263290774188935,-0.4509866949439048,0.2234449684619903,-0.1660336703062057,1.4496890306472778,walking
1783090489776440000,3.545440185546875,0.1455786837577819,-0.5172372827038169,-0.3915203604966402,0.2122668772935867,-0.1492058038711547,1.3889495134353638,walking
1783090489786484200,3.555484130859375,0.2430897944390773,-0.7478978036805987,-0.2667641000151634,0.1737024337053299,-0.1436690986156463,1.3057811260223389,walking
1783090489796528000,3.565528076171875,0.2959806960187852,-0.9576767185397446,-0.2779360668927431,0.1216141581535339,-0.1371712535619735,1.216032862663269,walking
1783090489806573000,3.575572998046875,0.2729356282569468,-1.0461747939430175,-0.3469546580612659,0.0957362204790115,-0.1472499966621399,1.1701253652572632,walking
1783090489816617200,3.5856171875,0.3209771901093423,-0.8198191305533051,-0.3027344080626964,0.1276069432497024,-0.1802726835012436,1.1651725769042969,walking
1783090489826662100,3.595662109375,0.4735514318428933,-0.5260403284929692,-0.249194541054964,0.2010036557912826,-0.2463222742080688,1.1591944694519043,walking
1783090489836706000,3.6057060546875,0.6918931539945304,-0.2864718400478362,-0.2012754365384578,0.2792131304740906,-0.3193153738975525,1.1205357313156128,walking
1783090489846750200,3.615750244140625,0.7864809245750307,-0.1444390122033655,-0.2723404388427734,0.3221579492092132,-0.3729040324687958,1.0570603609085083,walking
1783090489856795100,3.625795166015625,0.8067737710192799,-0.1592098803557455,-0.4265419895172119,0.3292586207389831,-0.3989517092704773,0.9957422614097596,walking
1783090489866839300,3.63583935546875,0.7459172973878682,-0.2063185452722012,-0.6033043315678834,0.3107935786247253,-0.3958062529563904,0.9523510932922364,walking
1783090489876884200,3.64588427734375,0.8201933706931769,-0.3053125879876315,-0.7351122641265392,0.2614834606647491,-0.3878197371959686,0.9107645153999328,walking
1783090489886928100,3.65592822265625,1.023699050501734,-0.4124478515826165,-0.8485802378743886,0.2018512934446334,-0.3476214408874511,0.8703638315200806,walking
1783090489896972300,3.66597216796875,1.1652218829974532,-0.4139480270124971,-1.1032920810461044,0.1675466299057006,-0.2584070265293121,0.8338360786437988,walking
1783090489907017200,3.676017333984375,1.213469050424546,-0.3496856904603541,-1.4159896647185086,0.179457888007164,-0.1255922466516494,0.7843963503837585,walking
1783090489917061000,3.68606103515625,1.1645122734233735,-0.4050552571132779,-1.7165636798769237,0.2427953630685806,0.0593586824834346,0.7172266244888306,walking
1783090489927106000,3.69610595703125,0.9717638422116636,-0.4267880732327699,-1.8457880256831645,0.2854591906070709,0.2656846940517425,0.6551011800765991,walking
1783090489937150200,3.706150146484375,0.8038498463965952,-0.3710799222752451,-1.8994073876678943,0.2987085282802582,0.4485644996166229,0.6097667217254639,walking
1783090489947194000,3.716194091796875,0.739042297051847,-0.268649329239875,-1.6671265720129012,0.3057352602481842,0.5565437078475952,0.5665715336799622,walking
1783090489957239000,3.726239013671875,0.7278827512644231,-0.202094790097326,-1.235654140356183,0.3104705512523651,0.5758593082427979,0.5281752943992615,walking
1783090489967283200,3.736283203125,0.7232451545916497,-0.2406967618227005,-0.8991226766318082,0.3190456628799438,0.5305836796760559,0.5049072504043579,walking
1783090489977328000,3.746328125,0.6840345494486391,-0.2239090008899569,-0.6545639786839484,0.3083231747150421,0.4472267925739288,0.5061836838722229,walking
1783090489987372000,3.7563720703125,0.632222090755403,-0.2611694948785006,-0.4563917688578367,0.3013531565666199,0.3206558227539062,0.537480890750885,walking
1783090489997416200,3.766416259765625,0.5955079786032438,-0.099262922784686,-0.0777384887188673,0.2765897512435913,0.1334496140480041,0.6021763682365417,walking
1783090490007461000,3.776461181640625,0.6429540587805211,0.1781736701533198,0.317239318755269,0.2647576034069061,-0.1042343154549598,0.7008390426635742,walking
1783090490017505300,3.78650537109375,0.7149966739453375,0.344102775761485,0.6702209820210934,0.3056269586086273,-0.3563022017478943,0.8233159780502319,walking
1783090490027549000,3.796548828125,0.7079669214390217,0.4990880241595208,0.9871148483395576,0.3695574700832367,-0.5714597702026367,0.9385696053504944,walking
1783090490037594000,3.806593994140625,0.8368202419757843,0.6381611254155636,1.3099632391482592,0.4409063160419464,-0.7520327568054199,1.034337043762207,walking
1783090490047638300,3.81663818359375,0.8030528508000075,0.8491093763150275,1.747839108106494,0.4840151667594909,-0.9000272750854492,1.1210533380508425,walking
1783090490057683200,3.82668310546875,0.6436407258704304,1.1167429526410997,2.266286643382907,0.4762166440486908,-1.0241210460662842,1.2025165557861328,walking
1783090490067727000,3.83672705078125,0.4799848258912563,1.2434940402016044,2.7570430386573075,0.4270679950714111,-1.1135729551315308,1.2756658792495728,walking
1783090490077771300,3.846771240234375,0.1879780019395053,1.198509673962742,2.9298318009018898,0.3908270597457886,-1.1466705799102783,1.3202966451644895,walking
1783090490087816200,3.856816162109375,-0.0796432994268834,0.9479816923469304,2.567690095102787,0.4120537936687469,-1.1008905172348022,1.3442118167877195,walking
1783090490097860000,3.866860107421875,-0.2415053017266094,0.639339959936589,1.7470476654678582,0.4737265110015869,-0.9933314323425292,1.3452268838882446,walking
1783090490107905000,3.876905029296875,-0.2727424437724053,0.3774270993448794,0.7715759086489677,0.5034335255622864,-0.824654221534729,1.3183825016021729,walking
1783090490117949200,3.88694921875,-0.3344922129817306,0.1685696832448244,-0.2627180394947528,0.489579439163208,-0.5659824013710022,1.2611191272735596,walking
1783090490127993000,3.8969931640625,-0.5639100404210389,0.0148819273114204,-1.2911691068291664,0.451066642999649,-0.2137628346681594,1.1930221319198608,walking
1783090490138038300,3.907038330078125,-0.8616042623594403,-0.1477880303703248,-2.152836205291748,0.4179514944553375,0.1748759895563125,1.136728286743164,walking
1783090490148082200,3.917082275390625,-0.9622668228089808,-0.1667452442966401,-2.6241408811211584,0.4180897176265716,0.5327385663986206,1.075084924697876,walking
1783090490158127000,3.927127197265625,-0.9349193816781044,-0.1684938415296375,-2.76636324018836,0.4518267810344696,0.832949697971344,0.9999614953994752,walking
1783090490168171300,3.937171142578125,-0.8664253989055752,-0.1991255650281906,-2.6428397363722325,0.4926210939884186,1.0501333475112915,0.9466702938079834,walking
1783090490178215000,3.94721484375,-0.6915308965533972,-0.1806396218754351,-2.207637470537424,0.5283346176147461,1.133541226387024,0.9273231029510498,walking
1783090490188260000,3.957260009765625,-0.4884796825140714,-0.0787010501407086,-1.4373761516183614,0.5679633021354675,1.0884407758712769,0.9392431378364564,walking
1783090490198304300,3.96730419921875,-0.3142766695573926,-0.0300819806613028,-0.585567014825344,0.5970652103424072,0.9418985843658448,0.959261119365692,walking
1783090490208349200,3.97734912109375,-0.0795651196241378,-0.1824842268288135,0.0652045858383178,0.5909655094146729,0.7394272089004517,0.9463765025138856,walking
1783090490218393000,3.98739306640625,0.6137874393984675,-0.5878728075496852,1.0266343733012675,0.5463582873344421,0.4675881564617157,0.8625805377960205,walking
1783090490229064200,3.998064208984375,0.5667622149817645,-0.5485973204769193,1.0395651665449142,0.4632375538349151,0.2257467657327652,0.7508377432823181,walking
1783090490239108000,4.008108154296875,0.2381992459185421,-0.5385892828121781,1.087253969436884,0.3276146352291107,0.086674191057682,0.6424330472946167,walking
1783090490249153000,4.018153076171875,-0.1451652806513011,-0.6413350792765617,1.1052537365078925,0.1606480181217193,-0.0074616284109652,0.5748007297515869,walking
1783090490259197200,4.028197265625,-0.6125625737786292,-0.6606677023865282,1.3187673078507185,0.0172114931046962,-0.0881043970584869,0.5611403584480286,walking
1783090490269241000,4.038240966796875,-1.0118326716192063,-0.8512941730082034,1.4936884059488773,-0.0485195852816104,-0.1659848242998123,0.5598042607307434,walking
1783090490279286300,4.048286376953125,-1.219074469216168,-1.0726097964040937,1.4901128855496644,-0.0378224626183509,-0.241170048713684,0.5478576421737671,walking
1783090490289330200,4.058330078125,-1.0364489342205223,-1.0954955819509924,1.3209902445971966,0.0188890192657709,-0.2879831194877624,0.535747230052948,walking
1783090490299375000,4.068375,-0.7421727040320635,-1.0206799949415029,1.0992863525360823,0.0915918201208114,-0.2583207786083221,0.5276338458061218,walking
1783090490309419300,4.078419189453125,-0.5621215495690703,-1.0328000563241542,0.820574625095725,0.1381960660219192,-0.1800249218940735,0.544808030128479,walking
1783090490319463200,4.088463134765625,-0.3613321429818868,-1.0074135400027036,0.7312719553112983,0.1413697600364685,-0.0943903848528862,0.5890915393829346,walking
1783090490329508000,4.098508056640625,-0.2775251480042934,-0.9346243442542852,0.8090174582928419,0.0917814373970031,-0.055289588868618,0.6454911231994629,walking
1783090490339552300,4.10855224609375,0.1567293155863881,-0.9108781424857676,1.1452303575873377,0.0149903735145926,-0.0927059352397918,0.691636860370636,walking
1783090490349597200,4.11859716796875,0.6756199184551834,-1.0756716681927443,1.3432605285942554,-0.0632309243083,-0.1729754656553268,0.7338644862174988,walking
1783090490359641000,4.12864111328125,0.7710185670271515,-1.254692018303275,1.0774895312696695,-0.0933715626597404,-0.2484640330076217,0.8025934100151062,walking
1783090490369685200,4.138685302734375,0.5919328965954482,-1.4041431595802307,0.6283271291434764,-0.0497782826423645,-0.2882034480571747,0.882927656173706,walking
1783090490379730200,4.148730224609375,0.1367753457076847,-1.4961616641946136,0.3199824799835681,0.0363904275000095,-0.3048992156982422,0.9605036973953248,walking
1783090490389774000,4.158774169921875,-0.056684887035191,-1.552913917377591,0.3929501010388135,0.1386736631393432,-0.3047437071800232,0.9945902824401855,walking
1783090490399818200,4.168818359375,-0.0928334742590785,-1.7513500388368963,0.4664718488454818,0.2097771316766739,-0.2895887792110443,0.9628738164901732,walking
1783090490409863200,4.17886328125,-0.183827019739896,-1.8340256916970012,0.243991127192974,0.2280221730470657,-0.228901982307434,0.913661241531372,walking
1783090490419907000,4.188906982421875,-0.4645116546884179,-1.8410346936762332,-0.2678302679419517,0.2076524198055267,-0.1479555964469909,0.8792460560798645,walking
1783090490429952300,4.1989521484375,-0.6038537821441888,-1.845098143722862,-0.5162684376716613,0.1964953690767288,-0.1260119527578354,0.8487416505813599,walking
1783090490439996200,4.20899609375,-0.5067337166070938,-1.8143131293587385,-0.3904623758763074,0.2113418281078338,-0.1860061734914779,0.8356462717056274,walking
1783090490450041000,4.219041015625,-0.3524314820371568,-1.599943964099884,-0.2166951239883899,0.2243835926055908,-0.2960642278194427,0.8480158448219299,walking
1783090490460085200,4.229085205078125,-0.1809697306126356,-1.451458599115163,-0.1709142005443573,0.2418684512376785,-0.392990380525589,0.8668551445007324,walking
1783090490470129200,4.239129150390625,-0.1726896857842803,-1.4579128898210822,-0.2259866839468479,0.2657580375671386,-0.4798549711704254,0.8656980395317078,walking
1783090490480174000,4.249174072265625,-0.2483390932694077,-1.5544785363458096,-0.1118652147263288,0.2953921556472778,-0.5683037042617798,0.8376583456993103,walking
1783090490490218200,4.25921826171875,-0.1851617754749953,-1.6399543413184583,0.1127846676588058,0.3101745843887329,-0.6574581861495972,0.7964739203453064,walking
1783090490500262100,4.26926220703125,-0.2080839475095272,-1.5655723234206438,0.1810702683776617,0.3088724017143249,-0.6792216897010803,0.7490062713623047,walking
1783090490510307000,4.27930712890625,-0.7178820201233029,-1.4538285431168974,-0.1990355486571788,0.3068049848079681,-0.5775414109230042,0.7284197807312012,walking
1783090490520351200,4.289351318359375,-1.6987027367547154,-1.0712363160938023,-1.1130851607859134,0.3195696175098419,-0.3870093822479248,0.7693418264389038,walking
1783090490530396200,4.299396240234375,-2.136613238634914,-0.6049037295885383,-1.8458903170138596,0.3472329378128052,-0.1876102685928344,0.7838253974914551,walking
1783090490540440000,4.309440185546875,-1.6147674392223357,-0.7914483377240598,-2.191448552280664,0.3748749196529388,-0.0255325809121131,0.7002444267272949,walking
1783090490550484200,4.319484130859375,-0.5433876230046153,-1.026297980953753,-2.437437575292587,0.3850180804729461,0.0451407879590988,0.5845974683761597,walking
1783090490560529200,4.329529052734375,0.7850314564190805,-0.8021345669113099,-2.5580133352190253,0.3801209330558777,0.1055056899785995,0.5316773056983948,walking
1783090490570573000,4.339572998046875,1.479153100118041,-0.262255755745247,-2.928268204846978,0.3884582221508026,0.2635296881198883,0.5469867587089539,walking
1783090490580618200,4.3496181640625,1.0116308654367925,0.071223553866893,-3.3433015428781507,0.4260992109775543,0.5029013156890869,0.6300944685935974,walking
1783090490591291100,4.360291015625,0.5204955538474023,0.4345305771183222,-3.1681630026370287,0.4694024920463562,0.7390382289886475,0.7642914652824402,walking
1783090490601335000,4.3703349609375,0.9727217274583876,0.9067429423771798,-2.3921920738995075,0.4696914851665497,0.8526660203933716,0.903974950313568,walking
1783090490611379200,4.380379150390625,1.0459484378412365,1.2604589112669229,-1.467895793044567,0.4298500418663025,0.8296597599983215,0.9781389832496644,walking
1783090490621424000,4.390424072265625,0.7118268117375671,1.0527865402329712,-0.5073807823389769,0.386186808347702,0.7484573721885681,1.0095025300979614,walking
1783090490631468000,4.400468017578125,-0.0518232723481953,0.6813751940462738,0.115490419486165,0.3407982885837555,0.6998469829559326,1.0286520719528198,walking
1783090490641513200,4.41051318359375,-1.2672772129796444,0.4231850803047418,0.4315092565357685,0.3077211380004883,0.6060319542884827,1.029808521270752,walking
1783090490651557000,4.42055712890625,-1.2775892020270228,0.1947913352161645,1.4591677121877669,0.3049772679805755,0.4145500957965851,1.013933181762695,walking
1783090490661601000,4.43060107421875,-0.7461884424794465,0.4124732782848179,2.3941712650179863,0.329341173171997,0.2136216163635254,0.9578554034233092,walking
1783090490671646200,4.440646240234375,-0.7291387426748871,0.7196192191794514,2.268548158574104,0.3390539884567261,0.0650715455412864,0.8770050406455994,walking
1783090490681690000,4.450690185546875,-0.3936733738120645,0.7757327360674738,1.8978350237846373,0.3132064342498779,-0.0499694868922233,0.8360156416893005,walking
1783090490691735000,4.460735107421875,0.4362978059865534,0.9379519543070346,1.5676970604896543,0.2511979341506958,-0.1025418862700462,0.7958034873008728,walking
1783090490701779200,4.470779296875,0.9553989828661084,0.8275798276826739,0.8788029421806335,0.1622347831726074,-0.1207017078995704,0.7603808045387268,walking
1783090490711823000,4.480822998046875,1.5401074811659752,0.7167295621525496,0.2797749727576971,0.0547943338751792,-0.1127588376402854,0.7744004726409912,walking
1783090490721868000,4.490867919921875,2.0017881502121684,0.8598437554929405,-0.2375169627428054,-0.0360883437097072,-0.0700711831450462,0.8113958835601807,walking
1783090490731912000,4.500911865234375,2.106669789661467,0.920557313522324,-0.5904167929440737,-0.0722490102052688,-0.0284084249287843,0.8792955875396729,walking
1783090490741956900,4.510956787109375,2.2196271835386754,0.9067588705986738,-0.550995467659831,-0.0479289293289184,0.0137810613960027,0.9525216817855836,walking
1783090490752001000,4.5210009765625,2.323058331918716,0.8952262537151574,-0.3382645711272954,-0.0159187987446784,0.0779110416769981,1.0242345333099363,walking
1783090490762045000,4.531044921875,2.1529792670242487,1.0385387461066244,-0.0912391908049583,-0.0042725354433059,0.1336846649646759,1.098388433456421,walking
1783090490772089900,4.54108984375,1.882841160531342,1.0485617621447891,0.3151531601309776,-0.0084108216688036,0.1517898887395858,1.1563841104507446,walking
1783090490782134000,4.551134033203125,1.580160674612969,1.021052627646178,0.7934989866435528,0.0028712139464914,0.1380769312381744,1.188962697982788,walking
1783090490792179200,4.56117919921875,1.2237757057096808,0.934976445627585,1.171307632651925,0.0310815460979938,0.1219368427991867,1.2028359174728394,walking
1783090490802222800,4.571222900390625,0.7377360367588699,0.7552848451919854,1.3282885849118231,0.0460938811302185,0.0826255306601524,1.2038432359695437,walking
1783090490812267000,4.58126708984375,0.468379436032474,0.6239525673210621,1.468134277975559,0.0367381982505321,0.0192438960075378,1.210749864578247,walking
1783090490822312200,4.591312255859375,0.6033295390743761,0.5040959154494107,1.5395628528952598,0.0081727718934416,-0.0527213290333747,1.2119436264038086,walking
1783090490832356000,4.601356201171875,0.8988201134886592,0.3828007552072405,1.3311954122692349,-0.0255548320710659,-0.0839359760284423,1.19450843334198,walking
1783090490842401000,4.611401123046875,1.043375664743781,0.1665750022962689,0.7610346408903599,-0.0665901973843574,-0.0572636574506759,1.1575932502746582,walking
1783090490852445200,4.621445068359375,1.1422411857087165,-0.0957855289977043,0.0735731857329606,-0.1055423840880394,-0.0029407679103314,1.1198298931121826,walking
1783090490862489000,4.631489013671875,1.3310507431015373,-0.4452548002284019,-0.4399468300133943,-0.133357897400856,0.0261887721717357,1.0696429014205933,walking
1783090490872534000,4.641533935546875,1.4717837403938174,-0.830310860081762,-0.7356178755611181,-0.1483778655529022,0.0170964747667312,0.9969793558120728,walking
1783090490882578200,4.651578125,1.5353125019744038,-1.2185936999619007,-0.8462672847568988,-0.1565680205821991,-0.0167733114212751,0.9115533232688904,walking
1783090490892622800,4.661622802734375,1.4932114360868929,-1.5396119527339935,-0.7969312991797923,-0.1687027066946029,-0.0701254829764366,0.8157042860984802,walking
1783090490902667000,4.6716669921875,1.2318246451959014,-1.793792757768929,-0.5951192715466023,-0.1767102628946304,-0.1390394270420074,0.7167075872421265,walking
1783090490912711000,4.6817109375,0.9862431800715624,-1.8533844721615311,-0.1580617332339286,-0.1705431789159774,-0.2334588766098022,0.6476371884346008,walking
1783090490922755800,4.691755859375,0.9235660668842494,-1.689414537797123,0.5545861856281757,-0.1402742713689804,-0.3267222940921783,0.607424259185791,walking
1783090490932800000,4.701800048828125,0.6925083632834256,-1.4642390241026877,1.0121329697400332,-0.0902952551841735,-0.3909705281257629,0.579717755317688,walking
1783090490942845200,4.71184521484375,0.4568086060304194,-1.291489570955187,1.1755080069512127,-0.0429064817726612,-0.3901612758636474,0.5693936944007874,walking
1783090490952889000,4.72188916015625,0.3380135920409113,-1.0371787097997962,1.0705968491464852,-0.0229096040129661,-0.3387579917907715,0.5820093154907227,walking
1783090490962933000,4.73193310546875,0.3335994288604706,-0.7884203682050108,0.8433055123418569,-0.0192164666950702,-0.2617235481739044,0.6326792240142822,walking
1783090490972978200,4.741978271484375,0.476667006580159,-0.5482043756365775,0.4703244326204061,-0.0264658574014902,-0.180536538362503,0.7067907452583313,walking
1783090490983022000,4.75202197265625,0.7332259389232844,-0.4671237368829548,0.13245266020298,-0.0315459221601486,-0.0942950025200843,0.7743107676506042,walking
1783090490993066000,4.76206591796875,0.8583632346116006,-0.5302686137124896,-0.1664373473912477,-0.040729034692049,-0.0185515042394399,0.8251124024391174,walking
1783090491003111200,4.772111083984375,0.9404876833297312,-0.5661854380071163,-0.2958732901215553,-0.0533111430704593,0.0480625554919242,0.8657943606376648,walking
1783090491013155000,4.782155029296875,0.9250284675870092,-0.5690484262228012,-0.4158598519831895,-0.0641909539699554,0.09392911195755,0.9033875465393066,walking
1783090491023200000,4.792199951171875,0.746454107678309,-0.5650342221453786,-0.3616132980108261,-0.0830393359065055,0.1014829352498054,0.9294750094413756,walking
1783090491033244200,4.802244140625,0.58156479344666,-0.6351962842606008,-0.1260913084775209,-0.1088323220610618,0.0860661566257476,0.944769322872162,walking
1783090491043288000,4.8122880859375,0.5063941093891858,-0.7498845935836433,0.2211228773027658,-0.1268609017133712,0.0691461190581321,0.9474989175796508,walking
1783090491053333000,4.8223330078125,0.351891237680614,-0.8735371306069195,0.3577741582393646,-0.1302830576896667,0.0616578347980976,0.9311612248420716,walking
1783090491063377000,4.832376953125,0.2842955919872969,-0.908998466219008,0.3322673765391111,-0.116822250187397,0.0738886445760726,0.9062011241912842,walking
1783090491073422000,4.842422119140625,0.3229282511118799,-0.8520720255129038,0.3089092973053455,-0.0929704457521438,0.0825716108083725,0.8801175951957703,walking
1783090491083466000,4.852466064453125,0.3450542312674224,-0.7443990017794072,0.2823743416011333,-0.0767422392964363,0.063853420317173,0.8711276054382324,walking
1783090491093510000,4.862510009765625,0.3041092766124755,-0.6254163562633097,0.2196779391914605,-0.0755267739295959,0.0120413536205887,0.8668505549430847,walking
1783090491103555000,4.87255517578125,0.4210010873291641,-0.6945107891470194,0.1742103194802999,-0.0841969698667526,-0.0368471145629882,0.8523580431938171,walking
1783090491113599000,4.882598876953125,0.3410301633831113,-0.8059754602484405,-0.0715980862677097,-0.0915789902210235,-0.0511019527912139,0.8388600945472717,walking
1783090491123644200,4.89264404296875,0.277746462604776,-0.8167227719731628,-0.3626479017555713,-0.0921841859817504,-0.0657649636268615,0.8511770367622375,walking
1783090491133688000,4.90268798828125,0.3771581462103873,-0.7417104933477938,-0.4406628693282604,-0.0930843353271484,-0.0921600833535194,0.8724841475486755,walking
1783090491143732000,4.91273193359375,0.3645658642061054,-0.618925532939285,-0.4346107296824455,-0.0979868620634079,-0.1293031424283981,0.9064895510673524,walking
1783090491153777200,4.922777099609375,0.3651775663636624,-0.4904916068583727,-0.3453992453128099,-0.1163887754082679,-0.1927071511745453,0.9359260201454164,walking
1783090491163821000,4.932821044921875,0.3202021871488541,-0.4712830485194921,-0.1359206285744905,-0.149209126830101,-0.2675007879734039,0.949009120464325,walking
1783090491173866000,4.942865966796875,0.18112930508852,-0.4188933744601905,0.0272340438842773,-0.1649523973464965,-0.3627032041549682,0.9495694637298584,walking
1783090491183910100,4.95291015625,0.0747952018085867,-0.5056676948107779,0.0639396804690361,-0.1320770531892776,-0.47442427277565,0.9336968660354614,walking
1783090491193954000,4.9629541015625,-0.033951880897209,-0.6911465734109282,-0.0001654196947813,-0.0874259620904922,-0.5935922265052795,0.8959335088729858,walking
1783090491203999000,4.9729990234375,0.1338913147039711,-0.8462067867413162,0.077241060590744,-0.0746040493249893,-0.7075778841972351,0.8401641845703125,walking
1783090491214043000,4.98304296875,0.3502202357284724,-0.927637846367806,0.1461228736370801,-0.0863509848713874,-0.8065071105957031,0.7762296795845032,walking
1783090491224088000,4.993088134765625,0.5601765529811382,-0.8580689278401434,0.2358440610945224,-0.1152637600898742,-0.8915004134178162,0.7366878390312195,walking
1783090491234132000,5.003132080078125,0.769708653472364,-0.5850193178147077,0.350324426755309,-0.1488624662160873,-0.9399515986442566,0.7021732926368713,walking
1783090491244176000,5.01317578125,0.7293864338256418,-0.3260110926233232,0.3408253615260124,-0.1795554012060165,-0.9323962926864624,0.6978096961975098,walking
1783090491254221000,5.023220947265625,0.6150676884673536,0.0105862759441137,0.0964379284918308,-0.1572538316249847,-0.9142249822616576,0.7378263473510742,walking
1783090491264265000,5.033264892578125,0.9000539661325514,0.1396387723147869,-0.0995136826753616,-0.055804256349802,-0.8930805921554565,0.7395528554916382,walking
1783090491274310100,5.04331005859375,1.0456759045101702,-0.2944792054146528,-0.4635141680836677,0.0801929980516433,-0.8641035556793213,0.679492712020874,walking
1783090491284354000,5.05335400390625,1.0800381928391751,-0.6207564016282558,-1.1214975998222827,0.1864997595548629,-0.792247474193573,0.6514104008674622,walking
1783090491294398000,5.06339794921875,1.3652934967041015,-0.5855694990433752,-1.9912533121943472,0.2359360307455063,-0.6412537097930908,0.6927781105041504,walking
1783090491304443100,5.073443115234375,1.6255480686947703,-0.504048569176346,-2.8559260222136973,0.235587865114212,-0.4145258069038391,0.7690438628196716,walking
1783090491314487000,5.083487060546875,1.4954099690444769,-0.2757463017635047,-3.4927743114650247,0.2061996161937713,-0.1666715443134308,0.8736256957054138,walking
1783090491324532000,5.093531982421875,1.4629124516740442,0.1610482016988098,-3.467631686902046,0.1702608317136764,0.0155770815908908,0.9941959977149964,walking
1783090491334576000,5.103576171875,1.560225847826153,0.6167451201602816,-2.5864047324448824,0.1432766169309616,0.1032749712467193,1.0969175100326538,walking
1783090491344620000,5.1136201171875,1.4210399338454007,0.8799078346826136,-1.4459797293126582,0.1328231394290924,0.1563246250152588,1.1817163228988647,walking
1783090491354665000,5.1236650390625,1.046808415671438,0.9440161497168242,-0.4979296479046344,0.1285977661609649,0.1915073841810226,1.2504074573516846,walking
1783090491364708900,5.133708984375,0.8509424369610845,0.8336585630744695,0.3104150256931781,0.1220131441950798,0.1904521584510803,1.2923492193222046,walking
1783090491374754000,5.143754150390625,0.9440425993323326,0.6069565704651176,0.9532628476202488,0.1028439775109291,0.1312855035066604,1.308982491493225,walking
1783090491384798000,5.1537978515625,1.171425852204114,0.4255469871304929,1.391992118537426,0.0902405753731727,0.0023554032668471,1.3328642845153809,walking
1783090491394841900,5.163841796875,1.4170372740752994,0.2134253085374832,1.592392525807023,0.0966057926416397,-0.1743477284908294,1.36649489402771,walking
1783090491404887000,5.173886962890625,1.4335104161009191,-0.0794403242006897,1.7257921114712953,0.1101494282484054,-0.368606835603714,1.3792883157730105,walking
1783090491414931000,5.183930908203125,1.1657467836543918,-0.5063270355023444,1.8905179787695408,0.133753553032875,-0.565017580986023,1.3790912628173828,walking
1783090491424974800,5.193974853515625,0.904889569595456,-0.8466624215543269,2.051329887494445,0.1617331206798553,-0.6973050832748413,1.3619366884231567,walking
1783090491435020000,5.20402001953125,0.4802048983827233,-0.7632062858410179,2.062215438646078,0.1963832527399063,-0.7421769499778748,1.3216073513031006,walking
1783090491445064200,5.214064208984375,0.2754847282178699,-0.415769543351233,1.949220343106985,0.2229568064212799,-0.6989622712135315,1.2712080478668213,walking
1783090491455109000,5.224109130859375,0.2517453945815563,-0.0713956955634057,1.7147329573184251,0.2384798377752304,-0.6206501722335815,1.2295221090316772,walking
1783090491465153000,5.234153076171875,-0.0981102456182241,0.3667930387362837,1.1673831526845693,0.2776218056678772,-0.4662687182426452,1.190020203590393,walking
1783090491475197200,5.244197265625,-0.5788096495196223,0.5336282994039356,0.2908019782066345,0.3326792120933532,-0.2466186136007309,1.1701067686080933,walking
1783090491485242000,5.2542421875,-0.8139791723534464,0.507431781873852,-0.4899602764606475,0.3716377913951874,-0.037674143910408,1.194145917892456,walking
1783090491495286000,5.2642861328125,-0.6895334391258656,0.5382829933419824,-1.3639146095663308,0.3832816481590271,0.1506494134664535,1.2530723810195925,walking
1783090491505331000,5.2743310546875,-0.3977725527592003,0.5732711584843695,-2.3312755406439303,0.3988291919231415,0.3303115367889404,1.3031026124954224,walking
1783090491515374800,5.284374755859375,0.0599829056672751,0.5782520156368612,-3.2021658100038763,0.4260637462139129,0.4761504828929901,1.304476022720337,walking
1783090491525419000,5.2944189453125,0.6386689288072288,0.3625054245449602,-3.582282732954621,0.422840416431427,0.5921453237533569,1.259549260139465,walking
1783090491535464000,5.3044638671875,1.217342092465609,0.1187371463224291,-3.585020633485913,0.3577495813369751,0.6464695334434509,1.2447460889816284,walking
1783090491545507800,5.3145078125,1.478464825592935,-0.0798521198719739,-3.2476942199915646,0.2541980445384979,0.6353058815002441,1.2272883653640747,walking
1783090491555553000,5.324552978515625,1.2425569054819643,-0.6430284391909837,-2.6105074925661085,0.1574086397886276,0.5997417569160461,1.1993352174758911,walking
1783090491565597200,5.33459716796875,0.740403283206746,-0.754500416816026,-1.864362377771735,0.0980063378810882,0.5440071821212769,1.1602144241333008,walking
1783090491575640800,5.344640869140625,0.401113752945885,-0.4721601236149668,-0.8585632872283459,0.0616595186293125,0.390529453754425,1.1072752475738523,walking
1783090491585686000,5.35468603515625,0.1290329148873686,-0.1821678543560206,0.1744277616232633,0.0329525992274284,0.195809930562973,1.0601575374603271,walking
1783090491595730200,5.364730224609375,-0.0930206673942506,0.061336219972372,0.6338590443074703,0.0163043811917305,0.061243861913681,1.038636565208435,walking
1783090491605775000,5.374775146484375,-0.4934199884604662,0.2478970485903322,0.7245300798356533,0.0062745120376348,-0.0499026365578174,1.041071534156799,walking
1783090491615819000,5.384819091796875,-0.8694456965748221,0.2089100230701267,0.7533499316066503,-0.0027200481854379,-0.1525214165449142,1.0417381525039673,walking
1783090491625863200,5.39486328125,-0.8852434966221451,-0.0708129272393882,0.6458797369688749,-0.0149657484143972,-0.2524210512638092,1.0113402605056765,walking
1783090491635908000,5.404908203125,-0.5872469307363033,-0.419081736639142,0.3870879310071468,-0.0297148674726486,-0.313246876001358,0.9530285596847534,walking
1783090491645952000,5.414951904296875,-0.2283426724884659,-0.6501603368975222,0.0587456189572811,-0.0434637516736984,-0.3400759398937225,0.9032956957817078,walking
1783090491655997000,5.424996826171875,0.1418837016973644,-0.7926537679910659,-0.0946118821084499,-0.0404019132256507,-0.3558663725852966,0.8759974837303162,walking
1783090491666040800,5.435040771484375,0.4381613348361104,-0.8880686370454728,-0.0718932698220014,-0.0171166900545358,-0.3866921067237854,0.8435444831848145,walking
1783090491676085000,5.4450849609375,0.5741651116494089,-1.0456025470130146,0.2443336570203304,0.0115149533376097,-0.4234562516212463,0.8113450407981873,walking
1783090491686130200,5.455130126953125,0.7026593896154314,-1.1338589226149025,0.6247784967511892,0.061758454889059,-0.4668865501880646,0.8034201860427856,walking
1783090491696174000,5.465174072265625,0.7421105985812843,-1.040861636096239,0.8816600851774216,0.1046180427074432,-0.5070054531097412,0.8072516918182373,walking
1783090491706219300,5.47521923828125,0.8101802184619009,-0.9672639004439116,1.079336620441079,0.1341101080179214,-0.5741402506828308,0.8203290700912476,walking
1783090491716263200,5.48526318359375,0.7754693358909338,-1.0132754177734256,1.2225702023774383,0.1473223119974136,-0.5974604487419128,0.8554564118385315,walking
1783090491726307000,5.49530712890625,0.4436541600987315,-0.911998378687352,0.8825053038299083,0.1399379074573516,-0.5455297231674194,0.9191869497299194,walking
1783090491736352300,5.505352294921875,0.0684589114591479,-0.8177443701058625,0.4728536588370799,0.1050531566143035,-0.480114221572876,1.012173056602478,walking
1783090491746396200,5.515396240234375,0.096885087737441,-0.698484807344526,0.4501689488202333,0.0495132431387901,-0.4752894937992096,1.116167426109314,walking
1783090491756441000,5.525441162109375,0.4796830664657056,-0.4354477650284767,0.7379483643352985,0.0322540961205959,-0.5116317868232727,1.1871880292892456,walking
1783090491766485200,5.5354853515625,1.0247573273830115,-0.2752294382825493,0.7251034958094358,0.0940710306167602,-0.5245145559310913,1.2316700220108032,walking
1783090491776529200,5.545529052734375,1.2734503486566244,-0.1020081298395991,0.4967746326506138,0.1799755543470382,-0.4842662215232849,1.2922673225402832,walking
1783090491786574000,5.555573974609375,1.022660062842816,0.0204148653887212,0.3758171799302101,0.2454876750707626,-0.4115659296512604,1.3505390882492063,walking
1783090491796618200,5.5656181640625,0.7568895039096474,-0.2210248237557709,0.5889683477014303,0.2765180170536041,-0.3396872282028198,1.3653371334075928,walking
1783090491806663200,5.5756630859375,0.8124548853956163,-0.5811030211538076,1.0531564695239066,0.2809552550315857,-0.2889003455638885,1.3387482166290283,walking
1783090491816707000,5.58570703125,0.9030711219966412,-0.7229488019935786,1.433068809813261,0.2532602548599243,-0.2676877379417419,1.3089165687561035,walking
1783090491826751200,5.595751220703125,0.8412583705537021,-0.7185171031564473,1.5055325729995963,0.2000126838684082,-0.2644153833389282,1.2867474555969238,walking
1783090491836796200,5.605796142578125,0.7843890668623149,-0.775705409669131,1.4265724335312842,0.1601403653621673,-0.2692229151725769,1.2618234157562256,walking
1783090491846840000,5.615840087890625,0.6734416976332664,-0.8084490107551217,1.2979460536181926,0.1476442515850067,-0.324264794588089,1.2344168424606323,walking
1783090491856885200,5.62588525390625,0.6771959356002509,-0.8452543083220719,1.2895084801405667,0.1826270073652267,-0.4090132415294647,1.2042109966278076,walking
1783090491866929400,5.635929443359375,0.7083158810071647,-0.8663704538479446,1.0753992809921502,0.2597173750400543,-0.4675284922122955,1.1547646522521973,walking
1783090491876973000,5.64597314453125,0.6471944728292525,-0.9508822360940276,0.7249871759533881,0.3458211123943329,-0.4605536758899688,1.1041972637176514,walking
1783090491887018200,5.656018310546875,0.5282501134969294,-0.9291199016191064,0.3155518040597438,0.4074308276176452,-0.3809643387794494,1.055350422859192,walking
1783090491897062400,5.6660625,0.4304677846588194,-0.8332695637568831,-0.1454594412922859,0.4240329563617706,-0.2564261257648468,1.02029287815094,walking
1783090491907107000,5.676107177734375,0.5333826540797949,-0.5887929911345243,-0.4794505728840827,0.3911561071872711,-0.1296843439340591,1.009665846824646,walking
1783090491917151200,5.686151123046875,0.8274205454677342,-0.2475700085930526,-0.5903571717113256,0.3320581614971161,-0.0143819777294993,1.0141727924346924,walking
1783090491927195100,5.696195068359375,0.6111002461411058,-0.2082458600729703,-0.7458253813207149,0.2781792879104614,0.1441869884729385,0.9649198651313782,walking
1783090491937240000,5.706239990234375,-0.0093560034967958,-0.7167299274787307,-1.1830559381127357,0.2496483474969864,0.2909018695354461,0.9278491735458374,walking
1783090491947284200,5.7162841796875,0.2227108771465718,-0.7152521100111305,-1.3429372879892587,0.248047649860382,0.3501201272010803,0.927653968334198,walking
1783090491957329200,5.7263291015625,1.1126752648107707,-0.3261417332656681,-1.3207961833298203,0.2590062916278839,0.3681329488754272,0.9313541650772096,walking
1783090491967373000,5.736373046875,1.5596053778402506,0.0388325656108558,-1.6837223175048828,0.2473563849925995,0.4037837088108063,0.9413469433784484,walking
1783090491977417200,5.746417236328125,1.539301279349625,0.2584640353120863,-2.0573305892139673,0.2117219418287277,0.4653783440589905,0.9803635478019714,walking
1783090491987462400,5.75646240234375,1.1660708279769867,0.2741330213479697,-2.1755197462648153,0.1832354068756103,0.5411499738693237,1.021909236907959,walking
1783090491997506000,5.766506103515625,0.4457230753272772,0.2069756940066814,-2.0590496680915353,0.1756011843681335,0.5819344520568848,1.0587998628616333,walking
1783090492007551200,5.77655126953125,-0.2069796395294368,0.1359991006381809,-1.596834892168641,0.1731673181056976,0.5636460185050964,1.0768040418624878,walking
1783090492017595400,5.786595458984375,-0.6673312519289553,0.0850073106780648,-1.0659300263792275,0.1777383685111999,0.5167365670204163,1.0766674280166626,walking
1783090492027639000,5.79663916015625,-0.9582873977839946,0.1285518533721566,-0.6933136883169412,0.1913046091794967,0.4582038223743438,1.088708519935608,walking
1783090492037684200,5.806684326171875,-1.0711816632971167,0.278154385818541,-0.3848445359945297,0.2060968577861786,0.4060532748699188,1.1065908670425415,walking
1783090492047728400,5.816728271484375,-1.1006332371003926,0.330415611192584,-0.1795873363435268,0.2270309925079345,0.3512288331985473,1.1090399026870728,walking
1783090492057773000,5.82677294921875,-1.0871629301525652,0.4694964573636651,-0.0337467867791652,0.239675685763359,0.3283360302448272,1.1130961179733276,walking
1783090492067817200,5.836817138671875,-1.15991478956528,0.7108898231483995,-0.0621644874900579,0.2170284688472747,0.1826733648777008,1.1493065357208252,walking
1783090492077861000,5.846861083984375,-0.3436541552111506,0.9956428765796124,0.5816214920699596,0.1734202802181244,-0.0919560641050338,1.1578680276870728,walking
1783090492087906000,5.856906005859375,0.9307197380311788,1.191823181936145,1.16132049164474,0.1226003319025039,-0.3548485040664673,1.1225968599319458,walking
1783090492097950200,5.8669501953125,1.924442606333643,1.0367413412958384,1.1032575942546128,0.0716628432273864,-0.4640325009822845,1.1256576776504517,walking
1783090492107995400,5.876995361328125,1.6953414436280727,0.830590553805977,0.3953694371402263,0.0213540885597467,-0.442217618227005,1.1915550231933594,walking
1783090492118039000,5.8870390625,1.4648419584318997,0.6295718685075641,0.2650099498242139,-0.0031722923740744,-0.4470541775226593,1.2660415172576904,walking
1783090492128083200,5.897083251953125,1.685465654040873,0.6102789928860962,0.876616245791316,-0.0278935767710208,-0.4281412065029144,1.2977129220962524,walking
1783090492138128400,5.90712841796875,1.3561147494703532,0.7702611727885902,0.9310270504146814,-0.0819634646177291,-0.3928468823432922,1.3405754566192627,walking
1783090492148172000,5.917172119140625,1.1217967288993298,0.921416487634927,0.9898270299077032,-0.1298058182001114,-0.3599411249160766,1.3848422765731812,walking
1783090492158217200,5.92721728515625,0.7717258385136723,0.9320682300306856,1.057598251363635,-0.1141986325383186,-0.3416071236133575,1.4036990404129028,walking
1783090492168261400,5.937261474609375,0.6842386206533759,0.8145739233762025,1.1374117927908898,-0.0408846996724605,-0.3311276733875274,1.4123986959457395,walking
1783090492178305000,5.947304931640625,0.7008727984596044,0.8530613288111984,1.1665765124768015,0.0393651314079761,-0.3177945613861084,1.4298261404037476,walking
1783090492188350200,5.95735009765625,0.6852051275979727,1.0176172463700175,1.2316963426411152,0.0859088897705078,-0.333205372095108,1.4686660766601562,walking
1783090492198394400,5.967394287109375,0.9586227672182024,1.1960447451539338,1.3999398626714945,0.0964206531643867,-0.3502120673656463,1.5224981307983398,walking
1783090492208439000,5.97743896484375,1.0135751313723622,1.227835137168318,1.1391618513286113,0.060729943215847,-0.3060746788978576,1.5583983659744265,walking
1783090492218483200,5.987483154296875,0.9642110887445507,0.9676014618352056,0.5332470450013875,-0.0037656940985471,-0.2307921648025512,1.582857370376587,walking
1783090492228527000,5.997527099609375,1.0061332178685811,0.531785009624809,0.0170049108147621,-0.0782904773950576,-0.1497287005186081,1.5752460956573486,walking
1783090492238572000,6.007572021484375,0.8989114450339227,0.0422292223118245,-0.4326917443186044,-0.1536219865083694,-0.0591710992157459,1.5231701135635376,walking
1783090492248616200,6.0176162109375,0.8708910000123083,-0.3121529554016888,-0.8297638937234878,-0.2113275378942489,-0.0092947110533714,1.4497921466827393,walking
1783090492258661400,6.027661376953125,0.7738436343852431,-0.7125723694078624,-0.862305980888009,-0.2113307267427444,-0.0091248024255037,1.3530325889587402,walking
1783090492268705000,6.037705078125,0.6882783975634723,-1.0445802182279529,-0.8763041111022234,-0.1711993366479873,-0.0340860597789287,1.2352969646453855,walking
1783090492278749200,6.047749267578125,0.5938310583669691,-1.3081447915494442,-0.8597709094524383,-0.1339651495218277,-0.1236598938703537,1.1059530973434448,walking
1783090492288794400,6.05779443359375,0.6850244372688233,-1.5380147466704248,-0.5188216292858123,-0.1176198199391365,-0.2487829476594925,0.9676858186721802,walking
1783090492298838000,6.067838134765625,0.9421034479632971,-1.639892235867679,-0.3213800718218088,-0.1148293614387512,-0.3800075650215149,0.8461924195289612,walking
1783090492308883200,6.07788330078125,1.0805476036660373,-1.562961702530831,-0.2199240229070186,-0.1333839148283004,-0.4943276345729828,0.7529128789901733,walking
1783090492318927400,6.08792724609375,1.1329985063932837,-1.5110047208003698,-0.0451186601430177,-0.1694367229938507,-0.5743536949157715,0.6988446116447449,walking
1783090492328971300,6.09797119140625,1.1777301399800926,-1.397406252540648,0.2162655003994703,-0.2078362703323364,-0.6314498782157898,0.695866584777832,walking
1783090492339016200,6.10801611328125,1.1919056725878268,-1.1411362201415,0.3589677519381046,-0.2136733829975128,-0.6678920388221741,0.7342666983604431,walking
1783090492349060400,6.118060302734375,1.2655182404831051,-0.9040162938922645,0.3908370544075966,-0.2145455628633499,-0.6325796842575073,0.7708418965339661,walking
1783090492359105000,6.12810498046875,1.2578640724681318,-0.7521268195524812,0.1356266140639782,-0.197664588689804,-0.5754354596138,0.822027325630188,walking
1783090492369149200,6.138149169921875,1.0917696202304217,-0.6684345369957387,0.4502765008479356,-0.1728537827730178,-0.4536938071250915,0.886881411075592,walking
1783090492379193000,6.148193115234375,0.8292060406450181,-0.462839483692497,0.4758803131818771,-0.1543480157852172,-0.3526476323604584,0.973621904850006,walking
1783090492389238000,6.158238037109375,0.8173878117531538,-0.2153716202996671,0.5836544592022895,-0.1337299942970276,-0.2832127809524536,1.04412841796875,walking
1783090492399282200,6.1682822265625,0.8201091995410621,-0.2844903108417987,0.7749626284778117,-0.1288092732429504,-0.2725465595722198,1.0763661861419678,walking
1783090492409327400,6.178327392578125,0.7768898702133447,-0.4575447382852435,0.5922948617756366,-0.1043698862195015,-0.26426762342453,1.0949838161468506,walking
1783090492419371000,6.18837109375,0.8815783251781016,-0.596199467998743,0.2117459771484136,-0.0659463331103324,-0.2529177665710449,1.0846208333969116,walking
1783090492429415200,6.198415283203125,0.9022963382318616,-0.8108757995106279,-0.0232008428454399,-0.0499154329299926,-0.2387880235910415,1.044114589691162,walking
1783090492439460400,6.20846044921875,0.9185945620819924,-1.057471410113573,-0.0270569337517023,-0.0564130134880542,-0.2627122700214386,0.9828445315361024,walking
1783090492449504300,6.218504150390625,0.9773294404495508,-1.2859987184539436,0.2613753927141428,-0.0730808451771736,-0.3103121817111969,0.892116129398346,walking
1783090492459549200,6.228549072265625,0.9342002005580812,-1.541468394255638,0.4280985713094473,-0.0860861241817474,-0.3416568040847778,0.779812753200531,walking
1783090492469593300,6.23859326171875,0.7747080691948532,-1.7912378125891089,0.3961901058733463,-0.091552622616291,-0.3639270365238189,0.6565873622894287,walking
1783090492479637200,6.24863720703125,0.6373248207218944,-1.9336220842197536,0.4382295047014951,-0.0935475975275039,-0.4089131355285644,0.5316195487976074,walking
1783090492489682200,6.25868212890625,0.4588406233146786,-1.943947517270595,0.4381862500816583,-0.0665408372879028,-0.4444895684719085,0.429201602935791,walking
1783090492499726300,6.268726318359375,0.4165015839528292,-1.789539630369097,0.3021615766108035,-0.0059549892321228,-0.4564828276634216,0.3544288277626037,walking
1783090492509771000,6.27877099609375,0.3492473721083253,-1.567900620237738,-0.0073111997961997,0.0658275932073593,-0.4305870532989502,0.3150015473365783,walking
1783090492519815200,6.288815185546875,0.3041094958081841,-1.2941755951687692,-0.3365513374686241,0.1148176789283752,-0.3780259191989898,0.3318265676498413,walking
1783090492529860400,6.2988603515625,0.3396813060574233,-0.9655616265706718,-0.5938175412982701,0.1271505057811737,-0.307302862405777,0.3747647404670715,walking
1783090492539904000,6.308904052734375,0.4816742402829229,-0.6454309702880681,-0.7327899586588144,0.1197844743728637,-0.2458613514900207,0.4235796928405761,walking
1783090492549948200,6.3189482421875,0.7199187866479158,-0.3788325822286307,-0.636864071342349,0.1193646714091301,-0.2307067960500717,0.4820009171962738,walking
1783090492559993300,6.328993408203125,0.7819378743179142,-0.1735143000401556,-0.54629766523242,0.1425107270479202,-0.2338216304779052,0.5386341214179993,walking
1783090492570037200,6.339037353515625,0.742198569125682,-0.1032771268621087,-0.4840016603171825,0.1707026064395904,-0.2725148200988769,0.5920542478561401,walking
1783090492580082200,6.349082275390625,0.8433850073188542,-0.1379883747592568,-0.155852825012803,0.1793711930513382,-0.3288955390453338,0.602806806564331,walking
1783090492590126300,6.359126220703125,0.9843331086665392,-0.5326126926206052,0.0934580358982086,0.1577384322881698,-0.4445153176784515,0.5751871466636658,walking
1783090492600170200,6.369170166015625,1.2121603059135375,-0.9025682870410382,0.3276677737891674,0.1461986899375915,-0.6080499291419983,0.5257378816604614,walking
1783090492610215200,6.379215087890625,1.420788735563308,-0.9661546240277588,0.3121341045707464,0.1746797710657119,-0.7536095380783081,0.470890074968338,walking
1783090492620259300,6.38925927734375,1.4903167375586923,-0.867538182453066,-0.1488607741683721,0.2298058718442917,-0.8615067005157471,0.4369779229164123,walking
1783090492630304000,6.399303955078125,1.386092100713402,-0.6108253747224808,-0.656661243224144,0.310890793800354,-0.8916150331497192,0.4365287721157074,walking
1783090492640348200,6.40934814453125,1.1046535786576568,-0.1037979358658194,-1.0726572888076304,0.3871360123157501,-0.8531768321990967,0.4621947109699249,walking
1783090492650392300,6.419392333984375,0.7724918544501066,0.3766952779389917,-1.442050573170185,0.429260790348053,-0.7386478185653687,0.5139610171318054,walking
1783090492660437000,6.42943701171875,0.5332730562254786,0.8127138285927474,-1.732077475351095,0.4475529789924621,-0.5804866552352905,0.5568773150444031,walking
1783090492670481200,6.439481201171875,0.3938699923627078,1.1602769739411771,-1.8672545920819044,0.4447957575321197,-0.3882427513599396,0.5800872445106506,walking
1783090492680526300,6.4495263671875,0.2934649138055741,1.2393068176448343,-2.101574220088124,0.4218057692050934,-0.165134310722351,0.5897102952003479,walking
1783090492690570200,6.4595703125,0.2866604944877326,1.1477180827498434,-2.2059207297474144,0.3815021216869354,0.0567810088396072,0.5938931703567505,walking
1783090492700614400,6.469614501953125,0.3600676760040223,0.9834807296209036,-1.9532459453612565,0.3391080796718597,0.2501680552959442,0.5976055860519409,walking
1783090492710659600,6.47965966796875,0.5549309074126184,0.7905890905462205,-1.46751702286005,0.3051362335681915,0.3990661203861236,0.6120193600654602,walking
1783090492720703500,6.489703369140625,0.8537386435508727,0.7271841014757752,-0.893891790241003,0.2702240347862243,0.514812707901001,0.6355544924736023,walking
1783090492730748400,6.49974853515625,1.12871995229125,0.7256890406124293,-0.3338812414765357,0.2232274711132049,0.5513839721679688,0.6729761362075806,walking
1783090492740792300,6.509792236328125,1.3692559705942868,0.8591166833274066,0.1772737987041473,0.1859836876392364,0.483744740486145,0.7448351383209229,walking
1783090492750836500,6.51983642578125,1.6218828241854906,1.036762091822922,0.6562988396525382,0.1491949558258056,0.2744495868682861,0.8264212012290955,walking
1783090492760881400,6.52988134765625,1.7244449346460402,1.0958449799105523,1.0618886420339346,0.1314631104469299,-0.0332379229366779,0.9003212451934814,walking
1783090492770925300,6.53992529296875,1.743134437546879,1.218314152368158,1.3374766844958066,0.1357941925525665,-0.3716602921485901,0.994042992591858,walking
1783090492780970200,6.54997021484375,1.487334214616567,1.3587082730948925,1.4726315893948076,0.1631291508674621,-0.7087973356246948,1.0984678268432615,walking
1783090492791014400,6.560014404296875,1.0187387977458535,1.359744776535779,1.6563018111377954,0.2104255557060241,-1.0176862478256226,1.1921395063400269,walking
1783090492801058300,6.570058349609375,0.5246591032676399,1.3153817570656536,1.976193690228462,0.2690923511981964,-1.258869767189026,1.263922929763794,walking
1783090492811103200,6.580103271484375,0.1247413551732897,1.3606105995848774,2.2544185109347104,0.326039046049118,-1.4170541763305664,1.3238751888275146,walking
1783090492821147400,6.5901474609375,-0.1868266399472951,1.4422111705593763,2.2975427823901176,0.3964418470859527,-1.464015007019043,1.3721247911453247,walking
1783090492831192600,6.600192626953125,-0.3618037060163915,1.60514050982967,1.932607646480203,0.465733915567398,-1.3909237384796145,1.393412470817566,walking
1783090492841236500,6.610236572265625,-0.4087831915952265,1.7213026910975575,1.398616505113244,0.4826559126377105,-1.2168030738830566,1.3809411525726318,walking
1783090492851280400,6.6202802734375,-0.3980461090035736,1.6165673282511532,0.6853577608764171,0.4183984398841858,-0.9481536149978638,1.3358039855957031,walking
1783090492861325600,6.63032568359375,-0.5527164462335408,1.3398726397216318,-0.1001063878715038,0.3263015449047088,-0.5760607123374939,1.2841312885284424,walking
1783090492871369500,6.640369384765625,-0.7126226382903754,1.0490893662154674,-0.8895721734762191,0.2538436651229858,-0.2135722041130066,1.21100652217865,walking
1783090492881414400,6.650414306640625,-0.7570775738276541,0.6665608520783484,-1.6066139433830977,0.1557202786207199,0.1733312904834747,1.1376383304595947,walking
1783090492891458300,6.660458251953125,-0.7900731038480997,0.4245627983987331,-2.4381080219000575,0.06124197691679,0.6283924579620361,1.095298171043396,walking
1783090492901503200,6.670503173828125,-0.845157277688384,0.3952347048446535,-2.7406138819038866,-0.033898651599884,0.9775829315185548,1.0530093908309937,walking
1783090492911547400,6.68054736328125,-0.7577224476024508,0.2474330843403935,-2.3839842175245285,-0.0770823433995246,1.205188512802124,1.0078518390655518,walking
1783090492921591300,6.69059130859375,-0.6118488725513219,0.0905357187107205,-1.7161697121232746,0.2433143109083175,1.1860499382019043,0.8083610534667969,walking
1783090492931636200,6.70063623046875,0.3866543618954718,-0.1400869544737041,-0.0194879598021507,0.3708274960517883,0.5950905680656433,0.6156283020973206,walking
1783090492941680400,6.710680419921875,0.9446404190950096,0.7500882994621991,-0.3049725423783063,0.3815477788448334,0.1950883418321609,0.5763477683067322,walking
1783090492951725600,6.7207255859375,0.0008035714678466,1.076836766449362,-1.3320575820565224,0.2836942374706268,0.0337142124772071,0.637431800365448,walking
1783090492961769200,6.730769287109375,-0.8935814091175794,0.0586785450704395,-1.2780284702271223,0.1920210272073745,0.0072919251397252,0.5970332026481628,walking
1783090492971813400,6.7408134765625,-1.1369365764945745,-0.0717939011007547,-0.4140735530883073,0.1169581040740013,-0.0406329594552516,0.6209768652915955,walking
1783090492981858600,6.750858642578125,-1.0391519095689057,0.2952252014763653,0.3689262513726949,0.0751587226986885,-0.1136480420827865,0.7227327823638916,walking
1783090492991902500,6.76090234375,-0.9794335000567138,0.6211340027689933,1.0000807128965854,0.047030996531248,-0.1904933005571365,0.8277421593666077,walking
1783090493001947400,6.770947509765625,-0.9256012259736656,0.6986781379595398,1.2857494198679924,0.0305891726166009,-0.2539362013339996,0.9086913466453552,walking
