time,seconds_elapsed,accel_x,accel_y,accel_z,gyro_x,gyro_y,gyro_z,label
1783088611704976100,0.05497607421875,0.1249639118827879,-0.3149941701769828,-0.2676356221526861,0.3149783611297607,-0.3584171533584595,0.3549179136753082,walking
1783088611715020000,0.06502001953125,0.0705387864731252,-0.4281500092357397,-0.115559393069148,0.2631343007087707,-0.3341511785984039,0.3551628887653351,walking
1783088611725064000,0.07506396484375,0.1599342491075396,-0.5043773627392948,0.0317108970373868,0.169827252626419,-0.3268477320671081,0.3292559087276459,walking
1783088611735109000,0.085109130859375,0.1518773455105722,-0.3759545425742864,0.0640203444898128,0.056153118610382,-0.2986176311969757,0.2986319363117218,walking
1783088611745153000,0.095153076171875,-0.029769115319848,-0.1704495056420564,-0.0041501054167747,-0.0274437740445137,-0.2756683826446533,0.2772973477840423,walking
1783088611755197000,0.105197021484375,-0.2411779694683849,-0.1048449607007205,-0.1894441289693117,-0.0048387977294623,-0.2462208420038223,0.2717828154563904,walking
1783088611765242000,0.1152421875,-0.3787200617648661,-0.1553722018890082,-0.2068751562416553,0.1182280033826828,-0.1998624056577682,0.2739285230636596,walking
1783088611775286000,0.1252861328125,-0.1036240406036377,-0.1506461962804198,0.0105079500108957,0.2558187246322632,-0.1502390950918197,0.2853327989578247,walking
1783088611785330200,0.135330078125,0.0613148849233984,-0.1109095214366912,0.2892804677277803,0.3375753462314605,-0.0953614637255668,0.2832696735858917,walking
1783088611795375000,0.145375,-0.0907096139729023,-0.0937089419193565,0.3081108404040336,0.3304218351840973,-0.00391227286309,0.2654344737529754,walking
1783088611805419000,0.1554189453125,0.0767680362515151,-0.1479439515843987,0.4718570490151643,0.2622518539428711,0.0442158430814743,0.258110761642456,walking
1783088611815463200,0.165463134765625,0.4106641830362379,-0.3101692342385649,0.628501316666603,0.1941854804754257,0.0861840099096298,0.2676612138748169,walking
1783088611825508000,0.175508056640625,0.51988896625638,-0.3812805599026381,0.4957184015959501,0.1490694135427475,0.1074986159801483,0.2620046436786651,walking
1783088611835552000,0.185552001953125,0.6147640293456613,-0.4908876204386353,0.3621422903209924,0.1378687024116516,0.1131308823823928,0.2502028346061706,walking
1783088611845596200,0.19559619140625,0.5572568661421538,-0.5451262833654881,0.2147708779275417,0.1604629606008529,0.1141993403434753,0.2250676453113556,walking
1783088611855641000,0.20564111328125,0.6127002286836505,-0.5477484485626221,0.135337860250473,0.2001628577709198,0.0854512751102447,0.2029140591621399,walking
1783088611865685000,0.21568505859375,0.6949582406535745,-0.5802893666833638,0.0666243895083665,0.247682973742485,0.008501635864377,0.195374384522438,walking
1783088611875729200,0.225729248046875,0.4482362271919846,-0.624021540904045,-0.1230962183147668,0.2848726511001587,-0.0902326107025146,0.2010913491249084,walking
1783088611885774000,0.235774169921875,0.1339379303246736,-0.7403786602221429,-0.3335305283427238,0.3212035000324249,-0.1801838129758834,0.2006457895040512,walking
1783088611895818000,0.24581787109375,-0.0573962501749396,-0.752854549305141,-0.4276245240569114,0.3602212071418762,-0.2381922751665115,0.2055217623710632,walking
1783088611905862100,0.255862060546875,-0.2365022327423095,-0.5812018053531647,-0.3327443464010953,0.3867167532444,-0.3024964332580566,0.2166132926940918,walking
1783088611915907000,0.265906982421875,-0.2551343063674867,-0.4426400146201252,-0.21106267105937,0.3486223518848419,-0.3519646525382995,0.2194099426269531,walking
1783088611925951000,0.275950927734375,-0.2034673936247825,-0.2957143001675605,-0.1316524497359991,0.2094777822494506,-0.3775677382946014,0.1954380273818969,walking
1783088611935995000,0.285994873046875,0.0742465549498796,-0.1071614209495484,-0.0348228915780782,0.0600756146013736,-0.2942554950714111,0.2101776450872421,walking
1783088611946039800,0.296039794921875,0.1320000941298902,0.1320243517883121,0.2913029134660959,-0.0832946002483367,-0.2752754092216491,0.2688439190387726,walking
1783088611956084000,0.306083984375,0.2360987665079534,0.4946931502014398,0.2931114241927862,-0.1484034061431884,-0.2683203220367431,0.3730801343917846,walking
1783088611966127900,0.3161279296875,0.380879870147258,0.4014830977149307,0.0273281519085168,-0.1405484080314636,-0.2524864971637726,0.4614866971969604,walking
1783088611976172800,0.3261728515625,0.4749810262545943,0.297853504153341,-0.0353951385080814,-0.0867011323571205,-0.2559822201728821,0.5517585873603821,walking
1783088611986217000,0.336217041015625,0.5428286739476025,0.1837562925912439,-0.2115472397059202,-0.0247038044035434,-0.2599740326404571,0.6404410600662231,walking
1783088611996260900,0.3462607421875,0.5372751314736902,0.0228711724996566,-0.3607031974285841,0.0215033590793609,-0.2708154618740082,0.7166734933853149,walking
1783088612006306000,0.35630615234375,0.4626134198516607,-0.0700092096410691,-0.3780214119762182,0.0581058487296104,-0.2945176064968109,0.7681689262390137,walking
1783088612016349700,0.366349609375,0.4034299939990043,-0.1992952225066721,-0.3138549370139837,0.1015902459621429,-0.33806112408638,0.7973015904426575,walking
1783088612026393900,0.376393798828125,0.2581871180668473,-0.2507514151081442,-0.2999696195244788,0.1613811254501342,-0.3580263257026672,0.8180076479911804,walking
1783088612036439000,0.38643896484375,0.1027392205931246,-0.2508202425606549,-0.2387520574957132,0.2128338366746902,-0.3411502242088318,0.8208475112915039,walking
1783088612046482700,0.396482666015625,0.0713673462517559,-0.3161114837691187,-0.0033165772020816,0.2248319089412689,-0.3337346613407135,0.8139973282814026,walking
1783088612056526800,0.40652685546875,0.104442078988254,-0.3877577930927276,0.1605032811671495,0.1857999861240387,-0.3539723455905914,0.8100355267524719,walking
1783088612066572000,0.416572021484375,0.0981568612389266,-0.4901576987288892,0.1532914500921964,0.0945920571684837,-0.3631658554077148,0.7888593673706055,walking
1783088612076616000,0.426615966796875,0.0727644996985793,-0.5778226843088865,0.1684925263553857,-0.0022367511410266,-0.355838418006897,0.7443960309028625,walking
1783088612086659800,0.436659912109375,0.2136081177584826,-0.5923899927131832,0.305724822050333,-0.0782705321907997,-0.3370354473590851,0.7004757523536682,walking
1783088612096705000,0.446705078125,0.268589708007127,-0.5318029836729169,0.2753881359755992,-0.1063242182135582,-0.3077256381511688,0.6712190508842468,walking
1783088612106749000,0.4567490234375,0.3946702028296888,-0.4496696209959686,0.1581312913388013,-0.0802835673093795,-0.290639579296112,0.6615672707557678,walking
1783088612116792800,0.466792724609375,0.4893165717296302,-0.4191816898822784,-0.0202244573831558,-0.0259662624448537,-0.2758771479129791,0.6558457016944885,walking
1783088612126838000,0.476838134765625,0.4842933367401361,-0.4475350931853055,-0.2113017405122518,0.0399115569889545,-0.2415063828229904,0.6621195673942566,walking
1783088612136882000,0.4868818359375,0.4309929775767028,-0.5792202761471271,-0.185972653466463,0.0803263485431671,-0.2018979638814926,0.6763139963150024,walking
1783088612146925800,0.49692578125,0.4490143719576299,-0.7144011922702193,-0.0524818823873996,0.0779638588428497,-0.1776996850967407,0.6937845945358276,walking
1783088612156971000,0.506970947265625,0.4499989990808069,-0.8456501757718622,-0.0161439100712537,0.0505800060927867,-0.1620764732360839,0.6987051367759705,walking
1783088612167015000,0.517014892578125,0.484963929478079,-0.9420105089828372,-0.0861222861826419,0.0240389443933963,-0.1537807285785675,0.6840792894363403,walking
1783088612177058800,0.527058837890625,0.5034849439442157,-0.9641342241160572,-0.2331295414388179,0.0161616541445255,-0.1423239409923553,0.6624606251716614,walking
1783088612187104000,0.53710400390625,0.5256077822946011,-1.019688499686122,-0.3565881633251905,0.0163941476494073,-0.1213933676481247,0.6410768032073975,walking
1783088612197148000,0.54714794921875,0.4794201777458191,-1.1389951164595782,-0.4639776939421892,0.0205894466489553,-0.0798971205949783,0.6132153272628784,walking
1783088612207192000,0.557192138671875,0.4106391947254538,-1.2359339802108704,-0.4633639459580183,0.0240124072879552,-0.0398277305066585,0.5940855741500854,walking
1783088612217237000,0.567237060546875,0.4596417105644941,-1.3457621361516414,-0.4215291297912597,0.0247509013861417,-0.0110474806278944,0.5802683234214783,walking
1783088612227281000,0.577281005859375,0.5202773810520768,-1.4377498072363435,-0.3647755614340305,0.0222608465701341,0.0018858949188143,0.5645037293434143,walking
1783088612237325000,0.587324951171875,0.6796775232829153,-1.4278946220457551,-0.2948094602823257,0.0347838513553142,-0.0086703589186072,0.539179801940918,walking
1783088612247370000,0.597369873046875,0.7289332832306623,-1.4261388644196091,-0.3502852637887,0.0804437473416328,0.0134314810857176,0.5050939917564392,walking
1783088612257414000,0.607413818359375,0.6277580970838665,-1.5077563865289092,-0.27232816388309,0.1209402903914451,0.0505078062415123,0.4563730657100677,walking
1783088612267458000,0.6174580078125,0.5739757996223867,-1.4969352789156138,-0.1298842710196971,0.1174917593598365,0.1063944995403289,0.4110482037067413,walking
1783088612277503000,0.6275029296875,0.4462862621679901,-1.5058840167857706,-0.0670113429993391,0.0789577662944793,0.1596412807703018,0.3738515675067901,walking
1783088612287547000,0.637546875,0.3900573022067546,-1.571218074222654,-0.0599035568207502,0.034649159759283,0.1924530118703842,0.3504458367824554,walking
1783088612297591000,0.647591064453125,0.4425223795898258,-1.6679092468231915,-0.0814163004487752,0.0089222230017185,0.1778410524129867,0.3378501534461975,walking
1783088612307636000,0.657635986328125,0.574207416421175,-1.7266379146456718,-0.1707867747724056,0.0194307900965213,0.1373178660869598,0.3290587961673736,walking
1783088612317679900,0.667679931640625,0.7142297812260687,-1.7724771441482006,-0.249437117639184,0.0563313066959381,0.0757386311888694,0.3134972155094147,walking
1783088612327724000,0.67772412109375,0.8092530206143855,-1.7316913986429572,-0.2907429414957762,0.1095460578799247,0.029139969497919,0.2966732382774353,walking
1783088612337768700,0.687768798828125,0.8151514310032129,-1.6180631197668611,-0.2981850741952657,0.165004014968872,0.0108844805508852,0.2928300499916076,walking
1783088612347812900,0.697812744140625,0.7066716209314763,-1.5755802149549123,-0.2133750396549701,0.2004517614841461,0.0158297047019004,0.3005867898464203,walking
1783088612357857000,0.70785693359375,0.5308136803746223,-1.4354258943334222,-0.0854267051339149,0.2049014866352081,0.0348734408617019,0.325761467218399,walking
1783088612367901700,0.717901611328125,0.3728991005264222,-1.0836045070186258,-0.0336386502295732,0.1836031228303909,0.0517996922135353,0.3880314826965332,walking
1783088612377945900,0.72794580078125,0.4422387403428554,-0.7942363610073924,0.1041156235128641,0.1760091185569763,0.0216436218470335,0.4773674607276916,walking
1783088612387990000,0.737989990234375,0.5521485832177102,-0.6601330109879374,0.1544482189118862,0.1878974735736847,-0.041836816817522,0.5563211441040039,walking
1783088612398034700,0.74803466796875,0.6894215031839906,-0.6425083608396351,0.0862894594430923,0.2081087976694107,-0.1306413263082504,0.6206682920455933,walking
1783088612408078800,0.758078857421875,0.8332891452401876,-0.6809172942109406,-0.0686298841118812,0.2350634634494781,-0.2217462062835693,0.6768671274185181,walking
1783088612418123000,0.768123046875,0.9149621969290076,-0.7348045133516192,-0.3045207069575786,0.2774637937545776,-0.2796391248703003,0.7253234386444092,walking
1783088612428168000,0.77816796875,0.951131826940924,-0.7566520418919622,-0.537468462088704,0.3258947134017944,-0.2873196601867676,0.7722659111022949,walking
1783088612438211800,0.7882119140625,0.9662925711937248,-0.6537460864298045,-0.5507593208163977,0.3470512926578522,-0.2696028053760528,0.8202922344207764,walking
1783088612448256000,0.798256103515625,1.093022323705256,-0.4527010976463556,-0.4242576779723167,0.3287284970283508,-0.2549266517162323,0.8695460557937622,walking
1783088612458301000,0.808301025390625,1.1635146406881511,-0.1263398764111101,-0.3507984740078449,0.2958748936653137,-0.2353198677301406,0.9289230704307556,walking
1783088612468344800,0.8183447265625,1.0911734809681772,0.1554628027819097,-0.2926730327755212,0.2754077017307281,-0.2135788798332214,1.0083270072937012,walking
1783088612478389000,0.828388916015625,1.0753609948083758,0.3289309255927801,-0.0788105018645524,0.2647469639778137,-0.2103538662195205,1.094819188117981,walking
1783088612488434000,0.838433837890625,1.1094796836398542,0.524002392924577,0.1503635799467563,0.2644734382629394,-0.2282276600599289,1.1907247304916382,walking
1783088612498477800,0.848477783203125,1.1569376003853975,0.7428606862962246,0.413585477310419,0.2751262784004211,-0.2788280844688415,1.2911986112594604,walking
1783088612508521700,0.858521728515625,1.2647770667269824,0.8533465754933655,0.764210348317027,0.3027909100055694,-0.3749551475048065,1.3932498693466189,walking
1783088612518567000,0.86856689453125,1.304968791861832,0.96498221924752,1.094296289163828,0.3550387024879455,-0.4891499578952789,1.4841070175170898,walking
1783088612528611000,0.878611083984375,1.2193985866039991,1.043189202260971,1.453544611608982,0.444996029138565,-0.6256439089775085,1.5523899793624878,walking
1783088612538654700,0.88865478515625,0.8932831568233668,1.1680604674242436,1.7598077783197164,0.5406097769737244,-0.7572695016860962,1.6017839908599854,walking
1783088612548700000,0.898699951171875,0.4535008697219193,1.327377023024857,2.1336603801786898,0.6010233163833618,-0.871821403503418,1.6382038593292236,walking
1783088612558744000,0.908744140625,0.0041109424501657,1.387822139376402,2.3911112929254768,0.6094203591346741,-0.9378021955490112,1.6654900312423706,walking
1783088612568787700,0.91878759765625,-0.4255005176402628,1.2760533707618713,2.374092938107252,0.5667658448219299,-0.9372296333312988,1.6678062677383425,walking
1783088612578833000,0.9288330078125,-0.745198481594026,1.0535675345428288,1.7729869933664797,0.5169604420661926,-0.8263198137283325,1.6223570108413696,walking
1783088612588877000,0.938876953125,-1.047957293445617,0.5863989356048405,0.6658867522090673,0.4911450743675232,-0.5798085331916809,1.507707595825195,walking
1783088612598920700,0.948920654296875,-1.2966944461219012,0.0449564553186297,-0.642545039588213,0.4930864572525024,-0.2373716831207275,1.3491077423095703,walking
1783088612608966000,0.9589658203125,-1.543675987302512,-0.2901382536008954,-1.7940321194827555,0.5003603100776672,0.129375159740448,1.1926374435424805,walking
1783088612619010000,0.969010009765625,-1.5858904504366218,-0.4187491436839103,-2.566108378869295,0.5013617277145386,0.5159916877746582,1.062633752822876,walking
1783088612629054000,0.979053955078125,-1.369769619204849,-0.4768708585891872,-3.0776357594937083,0.4828863441944122,0.8546205759048462,0.9527804851531982,walking
1783088612639099000,0.989098876953125,-1.144912377679348,-0.559194337010756,-3.2972230977922674,0.4683774411678314,1.0772294998168943,0.834808886051178,walking
1783088612649143000,0.99914306640625,-0.9190214091919362,-0.6685949151892214,-3.136128280472755,0.4789959788322449,1.1446574926376345,0.72041916847229,walking
1783088612659187000,1.00918701171875,-0.6645851680912077,-0.8003430803846567,-2.5898224319338796,0.4948435425758362,1.044413685798645,0.6327823996543884,walking
1783088612669230800,1.01923095703125,-0.5338071631021797,-0.7500572467368095,-2.026797503784299,0.5084157586097717,0.8149826526641846,0.6054415702819824,walking
1783088612679276000,1.029276123046875,-0.7484829100921749,-0.6839221020501106,-1.3908148914515972,0.5096160173416138,0.5162969827651978,0.6098729372024536,walking
1783088612689320000,1.03931982421875,-0.9814316881366072,-0.7414264887746423,-0.9995318468421696,0.4814879596233368,0.2555844485759735,0.6133270859718323,walking
1783088612699363800,1.04936376953125,-1.18908148201257,-0.9048175272725522,-0.6694090811163187,0.4056703150272369,0.0433486327528953,0.5922946929931641,walking
1783088612709409000,1.059408935546875,-1.298326723498851,-1.0049864589862525,-0.2757955477327108,0.3233669102191925,-0.1214536353945732,0.5684026479721069,walking
1783088612719453000,1.069452880859375,-1.4295156473763286,-1.0005687886744736,0.186558344399929,0.3053042888641357,-0.2527160346508026,0.5458589792251587,walking
1783088612729496800,1.079496826171875,-1.5088275228917598,-0.9784572023704649,0.4489268398046493,0.3300972580909729,-0.3236927390098572,0.5207600593566895,walking
1783088612739542000,1.0895419921875,-1.3358549285128711,-0.94068130620569,0.5559855310320854,0.3500283360481262,-0.3208793103694916,0.4948908984661102,walking
1783088612749586000,1.0995859375,-1.037732398159802,-0.8961229833591728,0.5579249746620655,0.3508704304695129,-0.2644442617893219,0.4831761717796325,walking
1783088612759630000,1.109630126953125,-0.6382767146192491,-0.7556725293353199,0.4918547119051217,0.3159922659397125,-0.1882039904594421,0.4858096539974212,walking
1783088612769675000,1.119675048828125,-0.1419134392485022,-0.6539210046052932,0.6461988859206438,0.2493514716625213,-0.1348187923431396,0.4960383176803589,walking
1783088612779719000,1.129718994140625,0.1672312742479145,-0.7124428978092968,0.766108875414729,0.1954197585582733,-0.0818029344081878,0.5410151481628418,walking
1783088612789763000,1.13976318359375,0.299385682156682,-1.0577619905579834,0.7004571303308009,0.1743839830160141,-0.0358098745346069,0.6035621166229248,walking
1783088612799808000,1.14980810546875,0.3988232308559119,-1.238678602743894,0.5708481691211462,0.2011089026927948,0.0375986360013484,0.6876965165138245,walking
1783088612809852000,1.159851806640625,0.5869035241261125,-1.2044663904100656,0.8754816888034344,0.3071274757385254,0.0749284252524375,0.7563930153846741,walking
1783088612819896000,1.16989599609375,0.9586647066637872,-1.2667587420634925,0.9111445383369922,0.4202059507369995,0.1393000334501266,0.7904629707336426,walking
1783088612829940700,1.179940673828125,1.1086571152105926,-0.928434257442504,0.6123533149421214,0.4549870789051056,0.1989665627479553,0.7917591333389282,walking
1783088612839985000,1.18998486328125,1.1598391670458017,-0.281154298286885,0.6157376966834068,0.4153448939323425,0.1822383552789688,0.850644052028656,walking
1783088612850029000,1.200029052734375,1.3779730916656554,0.2259126688625663,0.4234218116700649,0.336965411901474,0.1312217712402343,0.9888644814491272,walking
1783088612860073700,1.21007373046875,1.2480106408432126,0.5132142377328127,0.2691805135071277,0.2724303603172302,0.0707456469535827,1.1620712280273438,walking
1783088612870118000,1.220117919921875,0.925292890676856,0.5764839830510318,0.1849205140650272,0.2150669395923614,-0.0026723723858594,1.318684697151184,walking
1783088612880162000,1.230162109375,0.6819375771693885,0.2525155021712184,0.1716851849168539,0.1476598083972931,-0.0864333063364029,1.4234062433242798,walking
1783088612890206700,1.240206787109375,0.6233870423927903,-0.2730669995516538,0.3638520168483257,0.0880507975816726,-0.1503547579050064,1.4662879705429075,walking
1783088612900251000,1.2502509765625,0.672720689882338,-0.4288718937695026,0.4932207395613193,0.0287297926843166,-0.2050651460886001,1.475251078605652,walking
1783088612910295000,1.260294921875,0.819549812092632,-0.462484605840221,0.6428834777623414,-0.0180856510996818,-0.3061355650424957,1.47581148147583,walking
1783088612920339700,1.270339599609375,0.9943550287261604,-0.516752129535377,0.7030085683792829,-0.0213314127177,-0.418299525976181,1.4744385480880735,walking
1783088612930383400,1.28038330078125,1.089045821289718,-0.5434411798227579,0.6188502757459878,0.0251849573105573,-0.5055028796195984,1.4697489738464355,walking
1783088612940427300,1.29042724609375,0.8755487626902758,-0.590804404022172,0.5123685076236725,0.0891965702176094,-0.5345672965049744,1.444795846939087,walking
1783088612950472400,1.300472412109375,0.6127293086476624,-0.5579702751085162,0.5604524473130703,0.1374229490756988,-0.5416406393051147,1.4214547872543335,walking
1783088612960516400,1.310516357421875,0.6439098982006312,-0.4975235513217746,0.8602847041934728,0.1611422300338745,-0.576589822769165,1.3987643718719482,walking
1783088612970560300,1.320560302734375,1.0196021365769208,-0.506291233536601,1.2674088765352964,0.163443461060524,-0.6652749180793762,1.379353165626526,walking
1783088612980605400,1.33060546875,1.3074414655856788,-0.464266666951403,1.4931027150154113,0.1515300869941711,-0.7956832647323608,1.3518328666687012,walking
1783088612990649300,1.3406494140625,1.2348751188077032,-0.6205930277600884,1.3843687840521337,0.1436361968517303,-0.9319108724594116,1.3151602745056152,walking
1783088613000693200,1.350693359375,1.093795207773894,-0.8941135432329028,1.1763199078559874,0.169754609465599,-1.073114275932312,1.2765898704528809,walking
1783088613010738400,1.360738525390625,1.0894017951205373,-1.1133058908645064,0.9653320555984972,0.2314065247774124,-1.2166779041290283,1.2456200122833252,walking
1783088613020782600,1.370782470703125,0.96903368659541,-1.415047123171389,0.7115998711138963,0.3208112120628357,-1.352662205696106,1.1879163980484009,walking
1783088613030826200,1.380826171875,0.651463382320106,-1.6961007375627757,0.2318342409312725,0.4208336770534515,-1.4252203702926636,1.0990197658538818,walking
1783088613040871400,1.390871337890625,-0.0800686852321028,-1.8265186770677568,-0.7334615743100643,0.5190226435661316,-1.2959301471710205,1.00495183467865,walking
1783088613050915600,1.40091552734375,-0.9975798359915612,-1.0831135086312889,-2.217866603606939,0.6027162075042725,-0.902136206626892,1.011201024055481,walking
1783088613060959200,1.410959228515625,-1.2812138222649694,-0.1303712508190423,-3.3591227968662976,0.6393901109695435,-0.3202325403690338,1.1270114183425903,walking
1783088613071004400,1.42100439453125,-1.09357411236912,0.1309559188392013,-3.9842058295220135,0.6396694779396057,0.3388867676258087,1.2144405841827393,walking
1783088613081048600,1.431048583984375,0.1946194857805967,0.2354234245296567,-4.109636628264188,0.6190203428268433,0.8804677128791809,1.2393943071365356,walking
1783088613091092200,1.44109228515625,2.061452929840982,0.5426978141095489,-3.6662779439806936,0.5790793299674988,1.159145712852478,1.2359015941619873,walking
1783088613101137400,1.451137451171875,2.354914921037107,0.5326481657927855,-3.2182436691015956,0.5189660787582397,1.252000093460083,1.1527626514434814,walking
1783088613111181600,1.461181640625,1.3071153023712336,0.2097468757530674,-2.5777298430800437,0.4253626465797424,1.2836802005767822,1.062893271446228,walking
1783088613121225500,1.4712255859375,0.2916976118721068,-0.018531535860151,-1.1477923170298336,0.3223868608474731,1.2099764347076416,1.0293302536010742,walking
1783088613131270400,1.4812705078125,-0.468058533515036,-0.0971761065732687,0.5468441931992769,0.2471187561750412,1.0247421264648438,1.0029327869415283,walking
1783088613141314600,1.491314453125,-1.1522539726138117,-0.0398480627963319,1.5798071850001811,0.2109117060899734,0.7884926795959473,0.9467275142669678,walking
1783088613151358500,1.5013583984375,-1.2030011401630938,0.2966283462725579,2.1291648223251105,0.192729502916336,0.5506348609924316,0.9007357954978944,walking
1783088613161403400,1.5114033203125,-1.031670906163752,0.8251853337615728,2.1202660610765216,0.1714077293872833,0.3201355040073395,0.8771514296531677,walking
1783088613171447600,1.521447509765625,-0.8186560781233012,1.1881368946388362,1.7029741304636,0.1548284888267517,0.1057989597320556,0.8635549545288086,walking
1783088613181491500,1.531491455078125,-0.6939562240041792,1.1849375140756369,1.0542816741615533,0.138084664940834,-0.0940589979290962,0.863842785358429,walking
1783088613191535400,1.541535400390625,-0.3402615901634097,1.156122630740702,0.4895423433095216,0.1118266880512237,-0.3059494197368622,0.8755982518196106,walking
1783088613201580500,1.55158056640625,0.3058462564729154,1.15003264330253,0.1383650991171598,0.0919250398874282,-0.5133370161056519,0.8992573618888855,walking
1783088613211624400,1.56162451171875,0.6473987632296979,1.2014109483622013,-0.3921837928414344,0.1025209575891494,-0.6356238126754761,0.9301401972770692,walking
1783088613221668600,1.571668701171875,0.9163158034950494,1.2893161724388598,-0.7379132930219173,0.1393096148967743,-0.6675279140472412,0.9869078993797302,walking
1783088613231713300,1.58171337890625,1.0345458770781757,1.252118368422985,-0.7056500227987765,0.1572678536176681,-0.6115895509719849,1.049865961074829,walking
1783088613241757400,1.59175732421875,1.0619507474847136,1.137087821533531,-0.3898106339693069,0.1012638658285141,-0.5233350992202759,1.1136796474456787,walking
1783088613251801600,1.601801513671875,1.29664549241364,1.0255087302722037,0.5676718771725893,0.0034837750717997,-0.4936959743499756,1.1546262502670288,walking
1783088613261846300,1.61184619140625,1.3464156316243112,0.7948159875262528,1.2777461461544035,-0.0856103748083114,-0.444534420967102,1.1573450565338137,walking
1783088613271890400,1.621890380859375,1.2534073853202163,0.652082025675103,1.164987197458744,-0.1395628154277801,-0.3639788329601288,1.1470564603805542,walking
1783088613281934600,1.6319345703125,1.3098846209540962,0.5268978221051395,0.984957962566614,-0.1514562666416168,-0.2973268032073974,1.1287800073623655,walking
1783088613291979300,1.641979248046875,1.3841393592104314,0.288272167468071,0.6112953303217887,-0.124061644077301,-0.2552302181720733,1.0857398509979248,walking
1783088613302023400,1.6520234375,1.360142543681711,0.0036860681015998,0.2054132669955491,-0.0896298214793205,-0.2141801416873932,1.023082971572876,walking
1783088613312067600,1.662067626953125,1.218358576031774,-0.2805057712502777,-0.0751817899733781,-0.0610056295990943,-0.1824501752853393,0.9538655281066896,walking
1783088613322112300,1.6721123046875,0.9587219898089766,-0.3996656730294227,-0.1882353377014398,-0.0419127605855464,-0.14378322660923,0.8866032958030701,walking
1783088613332156400,1.682156494140625,0.7547703197985887,-0.4151084490939974,-0.230059632474184,-0.0316105857491493,-0.107975959777832,0.8327272534370422,walking
1783088613342200600,1.69220068359375,0.5462680007465184,-0.426453653646633,-0.1585562387526035,-0.0102463467046618,-0.0776472836732864,0.7867947816848755,walking
1783088613352245200,1.702245361328125,0.3747419519141316,-0.3642790100887417,-0.0445768083512783,0.0257433466613292,-0.0678609609603881,0.7443737983703613,walking
1783088613362289400,1.712289306640625,0.585282791056484,-0.2914320197384804,0.2107610577642917,0.0515131577849388,-0.0768834874033927,0.7136140465736389,walking
1783088613372333600,1.72233349609375,0.694114191044867,-0.3600693565044552,0.262303613474965,0.0556698180735111,-0.0763721615076065,0.6581651568412781,walking
1783088613382378200,1.732378173828125,0.653668637279421,-0.5034677736137062,0.1814987229228019,0.0267310496419668,-0.0785962864756584,0.57502281665802,walking
1783088613392422400,1.74242236328125,0.6484956185556948,-0.635157559685409,0.3424117539346218,-0.0315226688981056,-0.1235472485423088,0.4815914332866668,walking
1783088613402466300,1.75246630859375,0.6234852420702576,-0.8437444152157754,0.510965070566535,-0.1075052991509437,-0.2102923244237899,0.3812208771705627,walking
1783088613412511200,1.76251123046875,0.5987687339648604,-1.0796041853360832,0.4828109892278909,-0.1699937134981155,-0.3200073838233948,0.2889157235622406,walking
1783088613422555400,1.772555419921875,0.5735504138171672,-1.2684177613168954,0.4442646932125091,-0.1939608007669448,-0.4440006911754608,0.204102337360382,walking
1783088613432599300,1.782599365234375,0.5718913945637643,-1.3861764179959892,0.4033563442409038,-0.1771794259548187,-0.5510480403900146,0.1425915658473968,walking
1783088613442644500,1.79264453125,0.6590966536775231,-1.527445421861112,0.3716992232173681,-0.1292333304882049,-0.6245154142379761,0.106097862124443,walking
1783088613452688400,1.8026884765625,0.815565272501111,-1.5884636619254946,0.3493915298193693,-0.0743509083986282,-0.6611495614051819,0.0709079205989837,walking
1783088613462732300,1.812732177734375,0.9018613078154624,-1.5169007931016385,0.3288753960132599,-0.0234162956476211,-0.6495492458343506,0.034283097833395,walking
1783088613472777500,1.822777587890625,1.0073816835597156,-1.430997410366684,0.317670111387968,0.0251637566834688,-0.5937206149101257,0.0010641569970175,walking
1783088613482821400,1.8328212890625,1.2130629538416862,-1.298999069802463,0.2357745029896497,0.0682662352919578,-0.5096893310546875,-0.0200067125260829,walking
1783088613492865300,1.842865234375,1.4167603568300604,-1.241578561969101,0.1952601217716932,0.0948983803391456,-0.4225600063800812,-0.0306694768369197,walking
1783088613502910500,1.852910400390625,1.5851941387355326,-1.158927751289308,0.2235375372290611,0.0792233049869537,-0.3648912310600281,-0.0294609498232603,walking
1783088613512954400,1.862954345703125,1.721163574887812,-1.2134155666716395,0.3216781779855489,0.0285039357841014,-0.3493096232414245,-0.02569923363626,walking
1783088613522998300,1.872998291015625,1.657026326020062,-1.434457926084101,0.4433984317719936,-0.0257739070802927,-0.3636033833026886,-0.0306603927165269,walking
1783088613533043500,1.88304345703125,1.4135165526032447,-1.6048584780178965,0.4974421566486358,-0.061750017106533,-0.3709747493267059,-0.0409758798778057,walking
1783088613543087400,1.89308740234375,1.1268559119850396,-1.5759405726999045,0.2745183674037456,-0.0532434955239295,-0.3257076442241668,-0.0253496412187814,walking
1783088613553131300,1.90313134765625,0.9421373502328992,-1.2903634895347058,-0.1234124446570873,0.0009654141031205,-0.218440294265747,0.0294382404536008,walking
1783088613563175400,1.913175537109375,0.8952060877099632,-1.0196557664602994,-0.5139104763686657,0.072280615568161,-0.0504678413271904,0.1069386228919029,walking
1783088613573220600,1.923220703125,0.8691624226540327,-0.8628519243329763,-0.788117878127098,0.1223674789071083,0.1216541230678558,0.1843529790639877,walking
1783088613583264300,1.93326416015625,0.8466384561568499,-0.7551441215470432,-1.0061655857682228,0.1346703916788101,0.2693542838096618,0.2594918608665466,walking
1783088613593308400,1.943308349609375,0.8566337804704904,-0.5924794245623052,-1.1327817949026822,0.1217431426048278,0.3901187777519226,0.352414608001709,walking
1783088613603353600,1.953353515625,0.8734522288024426,-0.354063540218398,-0.937590646713972,0.1111689582467079,0.4357392489910126,0.4739556014537811,walking
1783088613613397200,1.963397216796875,0.8845344715699553,-0.1511142521835863,-0.5234516271740198,0.1192860081791877,0.4115561544895172,0.6062095165252686,walking
1783088613623441400,1.97344140625,0.8142167805016041,-0.0415709775988012,-0.220484579399228,0.136180579662323,0.3212658762931824,0.7230218648910522,walking
1783088613633486600,1.983486572265625,0.8262520862102508,-0.2222070923428982,0.1602063440471887,0.1493845283985138,0.1728463023900985,0.7927932143211365,walking
1783088613643530500,1.993530517578125,0.5596276869267225,-0.4708802398722618,0.3051443918138742,0.1484274864196777,0.0070206811651587,0.7981947064399719,walking
1783088613653574400,2.003574462890625,0.4126245233237743,-0.7394705324012786,0.4169733661830425,0.1440276801586151,-0.19629967212677,0.7640921473503113,walking
1783088613663619600,2.01361962890625,0.6860431127920746,-0.9715392396755516,0.6955453928917646,0.1412621587514877,-0.4509075582027435,0.7040311098098755,walking
1783088613673663500,2.02366357421875,0.9918085591137408,-0.975042498556152,0.8663952960282564,0.1469240486621856,-0.7359768152236938,0.6251989006996155,walking
1783088613683707400,2.033707275390625,1.2330378203779455,-0.958268473887816,0.6743950528353452,0.1772074550390243,-1.001323699951172,0.5504105091094971,walking
1783088613693752600,2.043752685546875,1.4527864867180584,-0.8352968318007886,0.3066208941072225,0.2503434419631958,-1.1892133951187134,0.5034030675888062,walking
1783088613703796500,2.05379638671875,1.4960150953307747,-0.4666655447866767,-0.0926654242157936,0.368972897529602,-1.256325602531433,0.5013870596885681,walking
1783088613713840400,2.06384033203125,1.3423498434901238,-0.0453015424292534,-0.4475432764917612,0.4924005568027496,-1.1813209056854248,0.5539810061454773,walking
1783088613723885300,2.07388525390625,1.1304200342074036,0.3646154024362564,-0.6541542288392782,0.5774306058883667,-0.9763514995574952,0.6419035792350769,walking
1783088613733929500,2.083929443359375,0.8837471205845475,0.6129357910051941,-0.811124659705162,0.5888617038726807,-0.6682887077331543,0.7276320457458496,walking
1783088613743973400,2.093973388671875,0.7459604058772326,0.5375032411411405,-0.93824706479609,0.5435070991516113,-0.3020861446857452,0.765536367893219,walking
1783088613754018300,2.104018310546875,0.6694368459060788,0.1798610387183725,-0.9548737899482248,0.4874334335327148,0.0464081987738609,0.7481176853179932,walking
1783088613764062500,2.1140625,0.6592305091902613,-0.2447125733353197,-1.2245195828795432,0.4491716921329498,0.3768928647041321,0.6803693771362305,walking
1783088613774106600,2.124106689453125,0.5676598944738507,-0.5249249876622111,-1.5989210507929323,0.4471181333065033,0.652765691280365,0.593742847442627,walking
1783088613784151300,2.1341513671875,0.2942813447549939,-0.5491610918395221,-1.9667104070901869,0.4470301270484924,0.8639556765556335,0.5252761244773865,walking
1783088613794195500,2.144195556640625,0.0296317526757717,-0.1602748792387545,-2.2804332421571014,0.4463518261909485,0.9956498146057128,0.5063421130180359,walking
1783088613804239600,2.154239501953125,0.0743637515887618,0.3327748146045953,-2.380881575334072,0.4577541053295135,1.0675010681152344,0.5456598997116089,walking
1783088613814284300,2.1642841796875,0.1892421766564249,0.8101317031450569,-2.157526408934593,0.4448156952857971,1.0575309991836548,0.6363525390625,walking
1783088613824328400,2.174328369140625,0.2800695717900991,1.1525829853724687,-1.569027432310581,0.3867152333259582,0.9049981832504272,0.7452874183654785,walking
1783088613834372600,2.18437255859375,0.2633542915716767,1.2984588254459202,-0.9074450992971658,0.3007635772228241,0.6493715047836304,0.8538498282432556,walking
1783088613844417300,2.194417236328125,0.1104310902699828,1.31587392449677,-0.288909880849719,0.2252416014671325,0.3298692405223846,0.957976758480072,walking
1783088613854461400,2.20446142578125,-0.1615805550098419,1.171834067678824,0.3495335686385631,0.2044681459665298,-0.0508408099412918,1.043174386024475,walking
1783088613864505600,2.214505615234375,-0.5541460406452418,0.8995971622757614,0.781827253550291,0.257733941078186,-0.4270435571670532,1.102809190750122,walking
1783088613874550300,2.22455029296875,-0.8957873947292566,0.4875806147824972,0.8278285417467355,0.3648915588855743,-0.6964201927185059,1.1271319389343262,walking
1783088613884594400,2.234594482421875,-1.2416811455607413,0.1887196140870451,0.5248544797092676,0.4908967912197113,-0.791579008102417,1.103136658668518,walking
1783088613894638300,2.244638427734375,-1.5610709203481674,-0.0061688978932797,0.1189466974198818,0.5927134156227112,-0.7354925870895386,1.0424426794052124,walking
1783088613904683300,2.254683349609375,-1.7223241430997849,-0.210849174439162,-0.4231394875973462,0.6515947580337524,-0.5575430393218994,0.9695268273353576,walking
1783088613914727400,2.2647275390625,-1.6202099225372075,-0.3091417908869683,-0.9720184014946222,0.6627235412597656,-0.3024479150772095,0.8860979676246643,walking
1783088613924772400,2.2747724609375,-1.256943304361403,-0.3844652908859774,-1.37501292668581,0.6523564457893372,-0.029711851850152,0.7916388511657715,walking
1783088613934816000,2.28481591796875,-0.920991978612542,-0.5887631805181502,-1.645241487941146,0.636827290058136,0.2486923485994339,0.6714533567428589,walking
1783088613944861200,2.294861083984375,-0.8082514423564076,-0.7323103584483266,-1.879483959057927,0.5946075320243835,0.513529360294342,0.5463110208511353,walking
1783088613954905300,2.3049052734375,-0.8464417645409703,-0.7007362395331264,-1.939042647963762,0.5047985315322876,0.7376564741134644,0.4482373893260956,walking
1783088613964949200,2.31494921875,-0.7364426359474658,-0.4913199839739128,-1.6504723743319512,0.3939442932605743,0.8955866098403931,0.3976348340511322,walking
1783088613974994200,2.324994140625,-0.6037549979448318,-0.1235215675873681,-1.1436579937040805,0.2859349846839905,0.9427346587181092,0.4033028483390808,walking
1783088613985038300,2.335038330078125,-0.5226785969749093,0.2188490506192669,-0.6828039847403764,0.2229770421981811,0.913525938987732,0.4717846214771271,walking
1783088613995082200,2.345082275390625,-0.447442738726735,0.4876263170877471,-0.3021282588630914,0.2289771437644958,0.8248543739318848,0.5801007151603699,walking
1783088614005127200,2.355127197265625,-0.3533247776150703,0.6243665549494326,0.1007037692427635,0.2669222950935364,0.7052310109138489,0.7030391097068787,walking
1783088614015171300,2.36517138671875,-0.188171624815464,0.5999028525613248,0.4823001170963049,0.29795902967453,0.5452080368995667,0.8136553764343262,walking
1783088614025215200,2.37521533203125,0.0124469552494585,0.4925694725783541,0.9468255080491303,0.3111306130886078,0.3601180613040924,0.8972887992858887,walking
1783088614035260200,2.38526025390625,0.1324719494253396,0.4300733419811353,1.2640513828009363,0.3027216792106628,0.1706717163324356,0.9480524063110352,walking
1783088614045304300,2.39530419921875,0.1679647030889987,0.4184920271176844,1.3593120842069386,0.2729802131652832,0.0149515820667147,0.9917659759521484,walking
1783088614055348200,2.40534814453125,0.2046155407465994,0.3439527362989261,1.3663380373209717,0.2390051931142807,-0.096232458949089,1.0451078414916992,walking
1783088614065393200,2.41539306640625,0.1791685264095664,0.2355377350917085,1.304064244237542,0.2111026793718338,-0.1631727814674377,1.087414026260376,walking
1783088614075437300,2.425437255859375,0.1113597494222223,0.2009275729488581,1.230870413210988,0.183349609375,-0.1888238191604614,1.1172218322753906,walking
1783088614085481200,2.435481201171875,0.2578320210188627,0.1917395098974928,1.2102467273771762,0.1566520929336547,-0.1942532360553741,1.1565624475479126,walking
1783088614095526100,2.445526123046875,0.4600732338495552,0.2096630699271336,1.1764800668537616,0.1325294524431228,-0.2061232030391693,1.1918344497680664,walking
1783088614105570300,2.4555703125,0.5978726619079708,0.1133332779848948,1.1760656408339738,0.1249545589089393,-0.2317152619361877,1.2023290395736694,walking
1783088614115614200,2.4656142578125,0.5627649620391428,-0.0171925058087334,1.200961597159505,0.1383742243051529,-0.2699356377124786,1.2025381326675415,walking
1783088614125659100,2.4756591796875,0.2824164271771908,-0.2851308372350409,1.211261457377672,0.1660429537296295,-0.2940006256103515,1.1879733800888062,walking
1783088614135703000,2.485703125,-0.1395398419849574,-0.4452611203713342,1.1932932544887065,0.1849007904529571,-0.3072751462459564,1.1939444541931152,walking
1783088614145747200,2.495747314453125,-0.2550441438660025,-0.3021788565391674,1.5370646063387392,0.180939719080925,-0.3579577505588531,1.248645305633545,walking
1783088614155792100,2.505792236328125,0.0869727655321359,-0.7084029017034917,1.7258061399966478,0.197520300745964,-0.3677603304386139,1.2303438186645508,walking
1783088614165836000,2.5158359375,-0.1537900472640991,-1.4122861340254544,1.5965993298470973,0.2209838926792144,-0.3849863111972809,1.1187058687210083,walking
1783088614175880200,2.525880126953125,-0.0580653816081583,-1.571126596546918,1.4888947419315577,0.2169135212898254,-0.3715759515762329,1.027879238128662,walking
1783088614185925000,2.535925048828125,0.1135410389840602,-1.5309054991871118,1.1163450393646954,0.1911345720291137,-0.2881264686584472,0.995782732963562,walking
1783088614195969000,2.545968994140625,-0.0552200751796364,-1.3593746280491352,0.4692278695553541,0.174378752708435,-0.1517923325300216,0.991687834262848,walking
1783088614206013200,2.55601318359375,-0.1166967265360057,-1.2873057093992828,-0.0014268179327249,0.1919186264276504,-0.0160015057772398,1.0040066242218018,walking
1783088614216058400,2.566058349609375,0.2448402913682162,-1.3530644219890235,-0.0734814157962799,0.2259594202041626,0.0675985813140869,1.029568433761597,walking
1783088614226102000,2.57610205078125,0.4847473641179501,-1.3984323807179928,-0.0645575201064348,0.2530496418476105,0.0997111871838569,1.0590031147003174,walking
1783088614236146200,2.586146240234375,0.2948810642138123,-1.4527010003916918,-0.1597363884478807,0.2622750997543335,0.1351759731769561,1.0859476327896118,walking
1783088614246190300,2.5961904296875,0.2676858910351991,-1.4992964550890029,-0.185314481818676,0.2657651603221893,0.1736866980791092,1.1275306940078735,walking
1783088614256235000,2.606235107421875,0.2966854832872748,-1.4021929022952913,-0.0771685798764228,0.2773523032665252,0.1804402023553848,1.1848751306533811,walking
1783088614266279200,2.616279052734375,0.1503568579450249,-1.1328276798710226,-0.1281102470844984,0.3082702755928039,0.1659611016511917,1.2379150390625,walking
1783088614276323300,2.6263232421875,0.1475954304076731,-1.1106757615566254,-0.136415718615055,0.3561925292015075,0.1311735659837722,1.271035075187683,walking
1783088614286368300,2.6363681640625,0.1004722985744476,-1.1220981960639358,-0.1204758066833019,0.3887268006801605,0.078225277364254,1.2788584232330322,walking
1783088614296412200,2.646412109375,-0.0501959634073078,-1.050280767957121,-0.195762226074934,0.3834023475646972,0.033251941204071,1.295304298400879,walking
1783088614306456000,2.6564560546875,-0.2853602255441248,-0.6257073750991374,-0.255737094566226,0.3634408414363861,-0.0842053070664405,1.3571114540100098,walking
1783088614316501200,2.666501220703125,-0.4168728284180164,-0.8812893521688878,0.4178133241385221,0.3600258827209472,-0.323822945356369,1.345984935760498,walking
1783088614326545200,2.676545166015625,-0.6463955775365233,-1.8699487996019424,0.8199059320539236,0.4004646241664886,-0.6096352934837341,1.2086015939712524,walking
1783088614336589000,2.686589111328125,-0.7909970868252217,-2.62885621920526,1.100476439103484,0.4424988925457001,-0.9639179706573486,1.0179256200790403,walking
1783088614346634200,2.69663427734375,-0.3848895441800355,-2.659456232391298,1.319400929579139,0.4756310284137726,-1.35531485080719,0.8454561233520508,walking
1783088614356678100,2.70667822265625,-0.0358151174858212,-2.632127788221836,1.218863164553046,0.5178969502449036,-1.7027713060379028,0.6820602416992188,walking
1783088614366722000,2.71672216796875,-0.7323758248999714,-2.577072255954146,0.2314782671004533,0.575402021408081,-1.803232192993164,0.5412684679031372,walking
1783088614376767200,2.726767333984375,-2.10485601823777,-1.9478044849596916,-1.4964292290896175,0.662307858467102,-1.5408389568328855,0.5083613991737366,walking
1783088614386811100,2.73681103515625,-1.0794634616911412,-0.9917801367368548,-2.51080150218904,0.733288586139679,-1.1356652975082395,0.600254237651825,walking
1783088614396855000,2.74685498046875,0.4987736975133419,-0.2740998679970391,-2.7221616948902607,0.7343085408210754,-0.7726064324378967,0.7397127747535706,walking
1783088614406900200,2.756900146484375,0.9743941907152532,0.7589307274136692,-3.5783109067142007,0.6485121250152588,-0.3466731607913971,0.9118121266365052,walking
1783088614416944400,2.7669443359375,1.886968177333474,1.7624015942052005,-4.465101340517402,0.5478116273880005,0.1510583311319351,1.1927303075790403,walking
1783088614426988000,2.776988037109375,3.0814941884875298,2.2827261753998696,-4.923661101064086,0.5351359248161316,0.6214841604232788,1.4840846061706543,walking
1783088614437033200,2.787033203125,2.8372458716630935,2.3853553597472605,-4.818955694964528,0.5582878589630127,0.9610182642936708,1.6850792169570925,walking
1783088614447077400,2.797077392578125,1.6121797608166932,1.659205277494341,-3.8492292037993665,0.559515118598938,1.1626501083374023,1.7691597938537598,walking
1783088614457121000,2.80712109375,0.5212883116602898,0.7596303270503878,-1.7445961806625128,0.5214769244194031,1.1417628526687622,1.7701318264007568,walking
1783088614467166200,2.817166259765625,-0.0724035574316978,0.2580814657352864,0.3476490700662136,0.4688533544540405,0.9476285576820374,1.6885226964950562,walking
1783088614477210400,2.82721044921875,-0.2158487362921237,0.0137101253193803,1.5773779120266436,0.40949147939682,0.6617283821105957,1.5408991575241089,walking
1783088614487254000,2.83725390625,-0.4629194170609116,-0.1796071370225399,2.008359345296025,0.3444517254829407,0.3491542637348175,1.3737947940826416,walking
1783088614497299200,2.84729931640625,-0.3810851834610104,-0.5841798713158816,2.2138024229079485,0.2767358124256134,0.0359801165759563,1.213734745979309,walking
1783088614507343400,2.85734326171875,0.0327227044284343,-0.8457754826519638,2.086391264003515,0.2347784787416458,-0.2195820659399032,1.0544761419296265,walking
1783088614517387300,2.86738720703125,0.5354249735623597,-0.7975742732584477,1.5055810883164404,0.2397279590368271,-0.3999167084693908,0.9120988249778748,walking
1783088614527431200,2.87743115234375,1.31725398067832,-0.3629518531382084,0.9474129525482654,0.2572346329689026,-0.5314187407493591,0.85630863904953,walking
1783088614537476400,2.887476318359375,2.0849626925051212,0.2279637561734765,0.3409831824362277,0.2674630284309387,-0.5845959782600403,0.8950651288032532,walking
1783088614547520300,2.897520263671875,2.4264836350798604,0.6944995371006428,-0.3945183732688426,0.2644740045070648,-0.50798100233078,0.992637574672699,walking
1783088614557564200,2.907564208984375,2.580849144144356,0.9503366579752416,-0.8763841906011104,0.2561002075672149,-0.3457452058792114,1.12965190410614,walking
1783088614567609300,2.917609375,2.83033331579566,1.3269615740917622,-1.1527718590080738,0.2682735025882721,-0.127789095044136,1.3123433589935305,walking
1783088614577653200,2.9276533203125,3.0972868009030816,1.6810067749358713,-1.3051888643532992,0.268357902765274,0.0808368176221847,1.51029372215271,walking
1783088614587697200,2.937697265625,3.302780147397518,1.7448948713481425,-1.3033651560574768,0.2386625707149505,0.2504759430885315,1.6775271892547607,walking
1783088614597742300,2.947742431640625,3.221827957329154,1.601037458425015,-1.1253992834359408,0.160342201590538,0.3903259932994842,1.8195109367370603,walking
1783088614607786200,2.9577861328125,2.773796897320449,1.310913817871362,-0.7214367899954318,0.0445145145058631,0.4721551537513733,1.9275612831115725,walking
1783088614617830400,2.967830322265625,2.0987831280648708,0.9354694167762996,-0.0369739321321248,-0.0436369180679321,0.4633563458919525,2.0102009773254395,walking
1783088614627875000,2.977875,1.6249913115948438,0.6537924828547984,0.7297165425628424,-0.0586212165653705,0.3604371845722198,2.0571131706237793,walking
1783088614637919200,2.987919189453125,1.477403626102209,0.6812000566750764,1.1413789428561925,-0.0255716554820537,0.2222598642110824,2.0745372772216797,walking
1783088614647963400,2.99796337890625,1.301468090264499,0.8540657566133886,1.112933185094595,0.0130567075684666,0.0977035164833068,2.079335927963257,walking
1783088614658008000,3.008008056640625,1.1673150558844207,0.8107411402802914,0.9373246892541648,0.0352570861577987,-0.009382190182805,2.0706868171691895,walking
1783088614668052200,3.01805224609375,1.1446540190041063,0.572898781508021,0.7470294964134693,0.0679390430450439,-0.1087783575057983,2.0449798107147217,walking
1783088614678096400,3.028096435546875,1.153888295817375,0.289688610137254,0.5552636464983225,0.1102822422981262,-0.1717365682125091,2.011545419692993,walking
1783088614688141000,3.03814111328125,1.039951535513997,0.0673106912720948,0.2607686589926481,0.1474888324737548,-0.1819629967212677,1.982828140258789,walking
1783088614698185200,3.048185302734375,1.1683669030249118,-0.1328591221120208,0.1320177759170532,0.1734194755554199,-0.162992775440216,1.9634120464324951,walking
1783088614708229400,3.0582294921875,1.3058870757505296,-0.3051947337616235,0.0455786788702011,0.186222642660141,-0.0973634496331214,1.9379020929336548,walking
1783088614718274000,3.068274169921875,1.3195111119553449,-0.418540396304056,-0.1642792925745248,0.1723169386386871,0.00266301818192,1.8918602466583252,walking
1783088614728318200,3.078318115234375,1.3958140149131415,-0.387467504909262,-0.1142103165477514,0.1339972019195556,0.0930230990052223,1.829982042312622,walking
1783088614738362400,3.0883623046875,1.3900547207340597,-0.3908680340677499,0.0864887814074754,0.096801646053791,0.1697106808423996,1.756257176399231,walking
1783088614748407000,3.098406982421875,1.2629139032036063,-0.5226030475206673,0.165291684487462,0.067162737250328,0.211549311876297,1.680728554725647,walking
1783088614758451200,3.108451171875,1.3217366790503262,-0.6787701991796493,0.2913900072276592,0.0413021147251129,0.1904168725013733,1.6136713027954102,walking
1783088614768495400,3.118495361328125,1.4756483068674802,-0.8647293355774134,0.2596662507086992,0.034880269318819,0.1671582013368606,1.5424847602844238,walking
1783088614778539300,3.128539306640625,1.694735148297995,-0.9240697786226868,0.0772556736379861,0.0380235984921455,0.1486018300056457,1.486346960067749,walking
1783088614788584200,3.138584228515625,1.6792415188290175,-0.8597820153683423,-0.1878676734328269,0.0449297167360782,0.1698136031627655,1.4495353698730469,walking
1783088614798628000,3.148628173828125,1.5731076873615384,-0.8455665160764009,-0.3240758867770433,0.045321736484766,0.2117341607809066,1.4282047748565674,walking
1783088614808672300,3.15867236328125,1.592522143536061,-0.9229023422785104,-0.1793102729678153,0.0461077652871608,0.2409964650869369,1.407408595085144,walking
1783088614818717200,3.16871728515625,1.639116721450537,-0.9989077235944568,0.1629910063296556,0.058405976742506,0.2267839759588241,1.370999455451965,walking
1783088614828761000,3.178760986328125,1.6660262095555662,-1.181214036573097,0.409493824082613,0.0845218896865844,0.2017150521278381,1.3118364810943604,walking
1783088614838805200,3.18880517578125,1.3646113596588372,-1.4755015918731689,0.5593225665003061,0.1121553853154182,0.1456597596406936,1.2248088121414185,walking
1783088614848850200,3.19885009765625,1.1444766166105866,-1.7352074439398943,0.7310662036061286,0.1221815422177314,0.0591698475182056,1.1202982664108276,walking
1783088614858894000,3.20889404296875,1.1409009500809013,-1.9441219970546664,0.9197557148158548,0.1261096894741058,-0.0729695484042167,1.0061668157577517,walking
1783088614868938200,3.218938232421875,1.2402573963679373,-2.0751558765009044,0.9310732276439666,0.1562265008687973,-0.230318546295166,0.8801705241203308,walking
1783088614878983200,3.228983154296875,1.2228840906322005,-2.1075125240959225,0.7383066762536764,0.210078552365303,-0.3981104791164398,0.7541031837463379,walking
1783088614889027000,3.239027099609375,1.2732131788998842,-1.970442287094891,0.5454167907446622,0.2388225644826889,-0.5409868955612183,0.6676910519599915,walking
1783088614899071200,3.2490712890625,1.348686206904799,-1.5657951723910868,0.3278039673894644,0.2265584468841552,-0.63394695520401,0.6464248895645142,walking
1783088614909116200,3.2591162109375,1.3774081512592733,-0.9752117907084524,0.1250707332581281,0.2123847752809524,-0.6244528889656067,0.695624589920044,walking
1783088614919160000,3.26916015625,1.5493413195878267,-0.3461192301504314,-0.3157289141923189,0.1766052097082138,-0.472703605890274,0.7994402050971985,walking
1783088614929204200,3.279204345703125,1.7872865907453,0.2452701341528445,-0.787332865229249,0.1276055723428726,-0.2286621630191803,0.9389844536781312,walking
1783088614939249200,3.289249267578125,2.2570646415293214,0.7205514585282653,-1.1408476124584674,0.0718799978494644,0.0522864237427711,1.1030296087265017,walking
1783088614949293000,3.29929296875,2.847375636011362,1.006547278562188,-1.3345891463607549,0.0122911147773265,0.2799147665500641,1.2921310663223269,walking
1783088614959337200,3.309337158203125,3.1078543721467256,1.133574698846042,-1.3236585870236155,-0.0340777151286602,0.3873109817504883,1.4934484958648682,walking
1783088614969382100,3.319382080078125,2.849189991956949,0.950497328429669,-1.1719617126464843,-0.028181966394186,0.4077626466751098,1.6609824895858765,walking
1783088614979426000,3.329426025390625,2.233712553644925,0.395219945666939,-0.8982868103295564,0.0472169183194637,0.344311773777008,1.7567614316940308,walking
1783088614989470200,3.33947021484375,1.350677380722016,-0.3769121355600655,-0.5124918417423964,0.1547365486621856,0.2384501546621322,1.7459677457809448,walking
1783088614999515100,3.34951513671875,0.540115177205205,-0.9449714046150446,0.0427507619678974,0.235114187002182,0.1098077520728111,1.6658223867416382,walking
1783088615009559000,3.35955908203125,0.1280772215977311,-1.0480364961616695,0.6103203478097915,0.260971337556839,-0.0788167044520378,1.5723628997802734,walking
1783088615019603200,3.369603271484375,-0.0094523034781217,-0.9905984526716172,0.9715098674505948,0.2453588098287582,-0.286901980638504,1.4524381160736084,walking
1783088615029647000,3.379647216796875,0.2744540699958801,-0.9565865852154792,0.9643810384839772,0.2292025834321975,-0.4974908530712127,1.2861921787261963,walking
1783088615039692300,3.3896923828125,0.8439102002367377,-1.0215845425657928,0.5967231996119022,0.2697848975658417,-0.6920369267463684,1.07761549949646,walking
1783088615049736200,3.399736083984375,1.3580299354419112,-0.9870257087513804,-0.2447965983569622,0.338750422000885,-0.7820819616317749,0.8694363236427307,walking
1783088615059780000,3.409780029296875,1.7002191326670348,-0.8885641654774546,-1.515268954116106,0.3947181105613708,-0.697189450263977,0.7063275575637817,walking
1783088615069825300,3.4198251953125,1.955369221125543,-0.7911657213903963,-2.683260594087839,0.4227435290813446,-0.4584541618824005,0.6024637222290039,walking
1783088615079869200,3.429869140625,2.0441807463921604,-0.6639189592674374,-3.644299920928478,0.4242109358310699,-0.1076202616095542,0.5634755492210388,walking
1783088615089913000,3.4399130859375,1.9679595303684472,-0.2485563892818987,-4.243849868398905,0.4110426604747772,0.2805477380752563,0.6097234487533569,walking
1783088615099958300,3.449958251953125,1.8777359463468193,0.3216191412746906,-4.179129851207136,0.4029953777790069,0.6027957797050476,0.7237941026687622,walking
1783088615110002200,3.460002197265625,1.8447198119297623,0.7760413636252284,-3.165918438580632,0.391543835401535,0.7610807418823242,0.871825635433197,walking
1783088615120046000,3.470046142578125,1.7078452436313032,0.9305544644668696,-1.7189029364794493,0.3614620864391327,0.7949731945991516,1.0040857791900637,walking
1783088615130091300,3.48009130859375,1.4949261310502886,0.7995998608019202,-0.4980114809691905,0.3121272027492523,0.7264537215232849,1.0898582935333252,walking
1783088615140135200,3.49013525390625,1.369905812805146,0.6366174761701375,0.4512433000534772,0.2768219411373138,0.555580735206604,1.1486833095550537,walking
1783088615150179000,3.500178955078125,1.2953814638271928,0.6135106682837009,0.9185656282484532,0.2923344671726227,0.30109703540802,1.2012399435043335,walking
1783088615160224300,3.510224365234375,1.2556387976340948,0.7543930839840323,1.0206073680967092,0.3575358390808105,0.0085293445736169,1.238732933998108,walking
1783088615170268200,3.52026806640625,1.1421882134124637,1.020755909721926,1.0405249514877797,0.4412703812122345,-0.2934051156044006,1.2702763080596924,walking
1783088615180312000,3.53031201171875,0.8702167540125548,1.217626243169233,1.087813356885314,0.5274809002876282,-0.5609979629516602,1.3120619058609009,walking
1783088615190357200,3.540357177734375,0.4375190183445811,1.388712658475339,1.320968617287278,0.5850838422775269,-0.7707506418228149,1.3685745000839231,walking
1783088615200401200,3.550401123046875,0.0255072200916707,1.5185209416493772,1.7392530660688876,0.604124128818512,-0.953199565410614,1.4267123937606812,walking
1783088615210445000,3.560445068359375,-0.2642493407152593,1.552303968785703,1.9886124422967433,0.5860139727592468,-1.060262680053711,1.470525145530701,walking
1783088615220490200,3.570490234375,-0.4742307924091816,1.593651293696463,1.8652181178182363,0.5349473357200623,-1.0609668493270874,1.4871482849121094,walking
1783088615230534100,3.5805341796875,-0.4622545234113931,1.53794928021878,1.458242414036393,0.4712816774845123,-0.9422334432601928,1.4689698219299316,walking
1783088615240578000,3.590578125,-0.3378140508808195,1.4312442247346042,0.7999684749186039,0.4395163059234619,-0.7381882071495056,1.4402493238449097,walking
1783088615250622200,3.600622314453125,-0.2639277075454592,1.2499452621676026,0.050996612265706,0.4311134815216064,-0.4996210932731628,1.4070541858673096,walking
1783088615260667100,3.610667236328125,-0.2157331470884382,0.7496812530312686,-0.528359857481718,0.4408878087997436,-0.2863562405109405,1.34958016872406,walking
1783088615270711300,3.620711181640625,-0.1581190163791179,0.1588650855060666,-1.2375158425748347,0.4607090055942535,-0.02736297249794,1.2642128467559814,walking
1783088615280755000,3.6307548828125,-0.1967433460667729,-0.2902614415891468,-2.0636334887504577,0.4711363613605499,0.2642236053943634,1.1525031328201294,walking
1783088615290800000,3.640800048828125,-0.2092244958467781,-0.5739359060034156,-2.6264456509321925,0.4764116704463959,0.5373451709747314,1.040205955505371,walking
1783088615300844300,3.65084423828125,-0.1661573614060878,-0.586772737353295,-2.874154921865463,0.4688533544540405,0.7743289470672607,0.949133038520813,walking
1783088615310888000,3.660887939453125,-0.209238670502603,-0.4660167985543608,-2.8836504799634217,0.4350740909576416,0.9575914144515992,0.8913424611091614,walking
1783088615320933000,3.67093310546875,-0.2372149110563099,-0.299800546567887,-2.5597458581000563,0.3632158637046814,1.071278095245361,0.8696709871292114,walking
1783088615330977300,3.680977294921875,-0.3864037481352687,-0.0435849477697163,-1.6505512847870587,0.2592215240001678,1.0247883796691897,0.8880776762962341,walking
1783088615341021200,3.691021240234375,-0.4290416973784565,-0.0355360813487321,-0.7622124524980783,0.1685475707054138,0.9160504341125488,0.9339905977249146,walking
1783088615351066000,3.701066162109375,-0.4656919505141675,-0.0110787356361746,-0.1998287448614835,0.1231957972049713,0.7531030774116516,0.9865712523460388,walking
1783088615361110300,3.7111103515625,-0.558928452616185,0.1732398670129478,0.0406225177675485,0.1327517479658126,0.5874669551849365,1.057854175567627,walking
1783088615371154200,3.721154296875,-0.4848644146263599,0.3986706706427037,-0.0536176084190607,0.1848522424697876,0.4446597099304199,1.1547008752822876,walking
1783088615381199000,3.73119921875,-0.3332033422149718,0.5656798265725373,-0.1450742413669824,0.2526536583900451,0.3333723247051239,1.270793318748474,walking
1783088615391243300,3.7412431640625,-0.1737567304939031,0.5990844488505274,-0.0028986440509557,0.2885257005691528,0.2117097228765487,1.401669979095459,walking
1783088615401287200,3.751287109375,0.0605078063242137,0.2801921752564609,0.1752308946996927,0.271428495645523,0.0715997517108917,1.4762855768203735,walking
1783088615411332000,3.76133203125,0.3156125943362712,-0.1554530851054936,0.3396913890600204,0.2401354312896728,-0.0540740862488746,1.5066519975662231,walking
1783088615421376300,3.771376220703125,0.4618592404834926,-0.4139669509086757,0.318492533686757,0.2192511856555938,-0.1279834657907486,1.5010135173797607,walking
1783088615431420200,3.781420166015625,0.4956700324095785,-0.5214314464580267,0.2500076110035181,0.2186466604471206,-0.1649223119020462,1.48611581325531,walking
1783088615441465000,3.791465087890625,0.6563846182398497,-0.5421448564019054,0.4038753996789455,0.2412864565849304,-0.204965591430664,1.4788717031478882,walking
1783088615451509200,3.80150927734375,0.876450241574645,-0.5183678211037069,0.64148763948977,0.2665608525276184,-0.2651627361774444,1.4860464334487915,walking
1783088615461553200,3.81155322265625,0.9734931502223014,-0.59928223644495,0.9571265373110772,0.2785059213638305,-0.3726367056369781,1.4987238645553589,walking
1783088615471597300,3.821597412109375,1.025471759262681,-0.7173558042921125,1.16865039614141,0.2605381309986114,-0.514769971370697,1.5068010091781616,walking
1783088615481642200,3.831642333984375,0.8651499721422791,-0.8976768617376685,1.1490940472781657,0.2404874712228775,-0.64994215965271,1.5028797388076782,walking
1783088615491686100,3.84168603515625,0.6845888223305344,-1.0235408642653376,0.9889730434268712,0.2326135039329528,-0.7702715992927551,1.5012589693069458,walking
1783088615501730300,3.851730224609375,0.7363150640450418,-0.9568616758298129,0.8679016089379787,0.2728530764579773,-0.8723926544189453,1.5181514024734497,walking
1783088615511775200,3.861775146484375,0.7283509532980621,-0.8948142388481646,0.6095709907472133,0.3605451881885528,-0.9112148284912108,1.535511493682861,walking
1783088615521819100,3.871819091796875,0.5427709524109959,-0.8247378822550178,0.4954501060485839,0.4539952576160431,-0.8952579498291016,1.5346825122833252,walking
1783088615531863300,3.88186328125,0.3109828887090087,-0.7395343914177268,0.5714180779635906,0.4911119043827057,-0.8310335874557495,1.533099889755249,walking
1783088615541908200,3.891908203125,0.1064559030286967,-0.4121491608969867,0.8150047160089016,0.4338797628879547,-0.8040549755096436,1.5812698602676392,walking
1783088615551952100,3.9019521484375,0.7453491421110927,-0.0764276253160089,1.488092193377018,0.3240521550178528,-0.8665011525154114,1.6375784873962402,walking
1783088615561996300,3.911996337890625,1.4715608914233744,-0.2697189312327653,1.5575626199662684,0.2336508780717849,-0.9765616059303284,1.6180737018585205,walking
1783088615572041200,3.922041259765625,1.7666716727398335,-0.6244513106234372,0.9478864152789116,0.200654923915863,-1.0740768909454346,1.5107263326644895,walking
1783088615582085000,3.932085205078125,1.6546109354414045,-1.0088815667286517,0.2240384724885225,0.2125531286001205,-1.1052769422531128,1.3996118307113647,walking
1783088615592129300,3.94212939453125,1.1092908830694854,-0.9424355294618756,-0.0868242969721555,0.2668554782867431,-1.0641131401062012,1.3429399728775024,walking
1783088615602174000,3.952174072265625,0.6709960580468177,-0.7876786829922348,0.0031646015107631,0.3565305173397064,-0.9688184857368468,1.3347840309143066,walking
1783088615612218000,3.962218017578125,0.4360702808409929,-0.6276251183539628,0.2499403909862041,0.4565310776233673,-0.8767465353012085,1.3459141254425049,walking
1783088615622262300,3.97226220703125,0.6264300633504987,-0.4528155178062617,0.4165805674731731,0.5678644776344299,-0.8034440875053406,1.367655634880066,walking
1783088615636073200,3.9860732421875,0.8917670531719922,-0.2107468831084668,0.3696346919029951,0.7195776104927063,-0.7069282531738281,1.3911162614822388,walking
1783088615646117000,3.9961171875,0.9918936070486902,-0.2212873471494764,0.3989432039737701,0.7777887582778931,-0.6620574593544006,1.408918380737305,walking
1783088615656161000,4.0061611328125,0.9593190789192916,-0.3453610321942716,0.5121083953827619,0.7710471749305725,-0.6390004754066467,1.4290156364440918,walking
1783088615666205200,4.016205078125,0.7033785707354545,-0.6010355829183012,0.5081342310547828,0.7115231156349182,-0.6107041239738464,1.4317063093185425,walking
1783088615676250000,4.02625,0.180390761680901,-1.0100443999629467,0.3660165014058351,0.633903980255127,-0.5461753010749817,1.3851925134658811,walking
1783088615686294000,4.0362939453125,-0.6342921750277281,-1.354090404035896,-0.0467670118719339,0.5693185925483704,-0.4037331938743591,1.2934823036193848,walking
1783088615696338200,4.046338134765625,-1.0841557111606002,-1.4433233695849776,-0.6045218906641006,0.5536031126976013,-0.2187818735837936,1.2049903869628906,walking
1783088615706383000,4.056383056640625,-0.5872872627466916,-1.260400751338899,-0.9205161777943373,0.5791577696800232,-0.0860744193196296,1.12598979473114,walking
1783088615716427000,4.066427001953125,-0.4442962573945522,-0.802885969800502,-1.2214607798308132,0.5991259813308716,0.0450415089726448,1.0884287357330322,walking
1783088615726471200,4.07647119140625,-0.275243174546957,0.2102487973932176,-1.9823644878178832,0.5886573791503906,0.2741122543811798,1.1470880508422852,walking
1783088615736516400,4.086516357421875,1.2788751501843332,0.9543532001402228,-2.7421283781200647,0.5420058369636536,0.5496429800987244,1.2351086139678955,walking
1783088615746560000,4.09656005859375,2.1104382022842763,1.0903726859793066,-3.6557103727370497,0.4723675847053528,0.8786064386367798,1.2843173742294312,walking
1783088615756604200,4.106604248046875,1.459085586862266,1.2458749439887702,-4.563452993676066,0.3841591775417328,1.2806013822555542,1.3522716760635376,walking
1783088615766649300,4.1166494140625,0.8472709088414907,1.2805256938703358,-4.530166225624084,0.3297665119171142,1.6368545293807983,1.4734513759613037,walking
1783088615776693000,4.12669287109375,0.9569213701277972,0.95554299444668,-2.941679475083947,0.3356108963489532,1.730532169342041,1.5716321468353271,walking
1783088615786737200,4.136737060546875,0.8239625139683484,0.6286751388635486,-1.0282453156292437,0.3483655750751495,1.5796276330947876,1.616735339164734,walking
1783088615796782300,4.1467822265625,0.356065016233921,0.4112797576513141,0.1079769751161336,0.337472915649414,1.3276116847991943,1.598798155784607,walking
1783088615806826200,4.156826171875,-0.4511760800361633,0.1587010540507733,0.5005021287411451,0.3151378035545349,1.1027157306671145,1.5650817155838013,walking
1783088615816870100,4.1668701171875,-0.6981276644699275,0.0977447367740795,0.7995061181038617,0.2907104790210724,0.8340141773223877,1.5569063425064087,walking
1783088615826914000,4.1769140625,0.2270755020968616,0.4930785911442711,1.3057926754653453,0.2718971073627472,0.5194796919822693,1.5833582878112793,walking
1783088615836959200,4.186959228515625,0.5233101728767157,0.846922387664765,1.0797755963802338,0.2512450814247131,0.2570808231830597,1.5934782028198242,walking
1783088615847003100,4.197003173828125,0.6599309125445783,0.9324007499206812,0.653863721460104,0.2305536717176437,0.0773038789629936,1.6323726177215576,walking
1783088615857047000,4.207047119140625,1.010227866771072,1.2117915456663817,0.7361053668171167,0.2233041375875473,-0.0857065990567207,1.721449613571167,walking
1783088615867092200,4.21709228515625,1.375085407400131,1.5419818967357275,0.9307944107025862,0.2168260067701339,-0.235216736793518,1.8250612020492551,walking
1783088615877136100,4.22713623046875,1.8988813179671764,1.7785247537493705,1.298136023232341,0.2058550864458084,-0.3556141853332519,1.9282538890838623,walking
1783088615887180000,4.237179931640625,2.1545146598979827,1.998210291725397,1.4974164865612982,0.1823918372392654,-0.3909458220005035,2.0378522872924805,walking
1783088615897225200,4.24722509765625,1.8792793763965367,1.9915520028799771,1.4165455450356006,0.1253636926412582,-0.3232794106006622,2.1291592121124268,walking
1783088615907269000,4.25726904296875,1.5498502920232713,1.657231200942397,1.135946980935335,0.0513084530830383,-0.2105471491813659,2.1867191791534424,walking
1783088615917313000,4.26731298828125,1.5351266240134835,1.3916440357521176,1.1034820506602523,-0.0051594618707895,-0.1519030779600143,2.22063946723938,walking
1783088615927357400,4.277357421875,1.5605864978320896,1.1949688595507293,0.884745776233077,-0.0255827121436595,-0.1537800729274749,2.2191965579986572,walking
1783088615937401300,4.2874013671875,1.7219262298233806,0.9523803656972945,0.4244949938595295,-0.0222045015543699,-0.1763167828321457,2.167123317718506,walking
1783088615947445500,4.297445556640625,1.680569990953803,0.5205547366887331,0.0021750059515237,-0.0313207656145095,-0.1706642210483551,2.077075242996216,walking
1783088615957490400,4.307490478515625,1.343428140246123,0.0579580487761646,-0.3452916932851076,-0.0621363073587417,-0.135949969291687,1.943684458732605,walking
1783088615967534300,4.317534423828125,0.9983725938044488,-0.4418579973969608,-0.4579302304714918,-0.0957145094871521,-0.1038599386811256,1.7833107709884644,walking
1783088615977578500,4.32757861328125,0.9962019717670976,-0.8210718340281397,-0.2052940245300531,-0.1074355989694595,-0.1429144144058227,1.627223253250122,walking
1783088615987623400,4.33762353515625,1.182189968933165,-1.014771063158661,0.0895797331601381,-0.0709641426801681,-0.2422343492507934,1.466422438621521,walking
1783088615997667300,4.347667236328125,1.2835069016382097,-1.120269446266815,0.1465419758319854,0.0076057976111769,-0.3453807830810547,1.2977179288864136,walking
1783088616007712300,4.357712158203125,1.2989930784530936,-1.198182560900226,-0.0564110385298728,0.0820344910025596,-0.3983803391456604,1.1309592723846436,walking
1783088616017756400,4.36775634765625,1.3368126676291228,-1.098055276371166,-0.0986632033258676,0.1091945767402648,-0.4166428744792938,0.9972493052482604,walking
1783088616027800300,4.37780029296875,1.4601694365762172,-0.904861804805696,0.0597381371259689,0.097546175122261,-0.413407951593399,0.9030506014823914,walking
1783088616037845200,4.38784521484375,1.4231271153829992,-0.7970042182855308,0.1406312904834747,0.0701895803213119,-0.4176675379276275,0.8249757289886475,walking
1783088616047889400,4.397889404296875,1.3676301229581236,-0.7482122764572501,0.1566162106007337,0.0524950101971626,-0.4258445203304291,0.7695571780204773,walking
1783088616057933300,4.407933349609375,1.2448236813701687,-0.7586787254139781,0.1674742892235517,0.0537316277623176,-0.4340052306652069,0.7305174469947815,walking
1783088616067978500,4.417978515625,1.1724809142149983,-0.9181311823539436,0.3616781799405813,0.0485994517803192,-0.4699432551860809,0.7058385014533997,walking
1783088616078022400,4.4280224609375,1.242536008824408,-1.1024765999447554,0.6245417653858661,0.0395210161805152,-0.5244547128677368,0.6803171634674072,walking
1783088616088066300,4.43806640625,1.2515594193659725,-1.235392274549603,0.6860398979216814,0.0369454734027385,-0.551940381526947,0.6404361128807068,walking
1783088616098111500,4.448111572265625,1.2485503006778658,-1.3774731793195008,0.4684773434489965,0.0574097409844398,-0.5225532054901123,0.5950201749801636,walking
1783088616108155400,4.4581552734375,1.203583470095694,-1.427605137579888,0.2177852573126554,0.0804649963974952,-0.4531373977661133,0.543362021446228,walking
1783088616118199300,4.46819921875,1.2076533498831092,-1.255901540223509,0.0553097992897033,0.0763401389122009,-0.3441035449504852,0.4938888251781463,walking
1783088616128244500,4.478244384765625,1.1865760750629006,-1.025749699421227,-0.0355827700346708,0.0413776263594627,-0.2205219864845276,0.4647818207740783,walking
1783088616138288400,4.488288330078125,1.0969408123232425,-0.987943335052952,-0.0183867205619812,0.0124682914465665,-0.1393329948186874,0.4631187617778778,walking
1783088616148332300,4.498332275390625,1.0260527740210297,-1.1743684084620325,0.0260275907039642,0.0100341625511646,-0.1106813699007034,0.466314285993576,walking
1783088616158377500,4.50837744140625,1.0104242661260068,-1.356221424715221,0.0561497572451829,0.0401351526379585,-0.1338299810886383,0.4811556339263916,walking
1783088616168421600,4.518421630859375,1.106606174030155,-1.571373557045311,0.0882253959417343,0.0749061778187751,-0.2048959136009216,0.4909475445747375,walking
1783088616178465300,4.52846533203125,1.0558728888757527,-1.5438170032083989,0.0285404503077268,0.1042369976639747,-0.2633146643638611,0.5022905468940735,walking
1783088616188510500,4.538510498046875,1.142570929119736,-1.345286773724854,0.0126449620395898,0.1252477318048477,-0.3062155246734619,0.530491054058075,walking
1783088616198554600,4.5485546875,1.3665969805181026,-1.0366487676415592,0.0938911666184663,0.1340454667806625,-0.3099306225776672,0.569879949092865,walking
1783088616208598300,4.558598388671875,1.4618408769197762,-0.758208039162308,-0.0336187764853239,0.1471143960952758,-0.2441313415765762,0.6082388162612915,walking
1783088616218642400,4.568642333984375,1.4186426634453235,-0.5643717396486551,-0.3445569492697715,0.1535013318061828,-0.1252219974994659,0.6664937734603882,walking
1783088616228687600,4.5786875,1.3946486243955791,-0.3793798408478498,-0.6398106461882591,0.1652285605669021,0.006397274788469,0.7614546418190002,walking
1783088616238731300,4.588731201171875,1.3873257341615854,-0.1836885611172765,-0.8841378734678029,0.1951183080673217,0.1007937490940094,0.8755292296409607,walking
1783088616248775400,4.598775390625,1.3193670273095368,0.0671684332571923,-0.942538624510169,0.2200276553630828,0.1334949731826782,0.9869138598442078,walking
1783088616258820400,4.6088203125,1.2312766559243202,0.1144784659646451,-0.801713857281208,0.2220676094293594,0.0971514135599136,1.0671324729919434,walking
1783088616268864500,4.618864501953125,0.9670955581396816,-0.083271061469987,-0.6684639092206954,0.1882068514823913,0.0137039236724376,1.0862572193145752,walking
1783088616278908400,4.628908447265625,0.8821034450307488,-0.3659001815497875,-0.4127209694355726,0.1390767395496368,-0.101394198834896,1.0502996444702148,walking
1783088616288953300,4.638953369140625,0.8000487005479633,-0.6496016801014542,-0.1721826130449771,0.1128105148673057,-0.2327993661165237,0.972823977470398,walking
1783088616298997500,4.64899755859375,0.7515862829349934,-0.8860260253019631,0.043670799422264,0.1230510845780372,-0.3992555439472198,0.8845489025115967,walking
1783088616309041400,4.65904150390625,0.6965563234999775,-1.0597855322748422,0.1323012690335512,0.1539283096790313,-0.5734782218933105,0.7829517126083374,walking
1783088616319086300,4.66908642578125,0.6920026057183742,-1.0825069210402667,0.1169447099477052,0.1851190328598022,-0.7098955512046814,0.7001237273216248,walking
1783088616329130500,4.679130615234375,0.7938229579009115,-0.8707467692360281,0.0300847571402788,0.2035078853368759,-0.7730899453163147,0.6425818800926208,walking
1783088616339174400,4.68917431640625,0.8897145045563578,-0.6117381056532264,-0.420402171587944,0.2243304103612899,-0.7294478416442871,0.6129227876663208,walking
1783088616349219300,4.69921923828125,1.1110410877376795,-0.4856090955138206,-0.9347381798923016,0.2338533401489257,-0.6225005984306335,0.5881868600845337,walking
1783088616359263500,4.709263427734375,1.4148463399022817,-0.4571333810053765,-1.3388883048593998,0.2162547707557678,-0.4850508272647857,0.5565182566642761,walking
1783088616369307400,4.719307373046875,1.6475512261882423,-0.6178382491592318,-1.6607342406272887,0.166262686252594,-0.3160021603107452,0.5212891697883606,walking
1783088616379351300,4.729351318359375,1.742446893674135,-0.8467655166026204,-1.9877023417145012,0.1050676703453064,-0.1221330985426902,0.4899282157421112,walking
1783088616389396500,4.739396484375,1.7760539797216652,-0.9865347103640436,-2.095662365695834,0.0566039979457855,0.0452692098915576,0.4581484496593475,walking
1783088616399440600,4.749440673828125,1.7954732582017778,-0.9932282166533172,-2.0382716684788464,0.0406987890601158,0.1501644700765609,0.4495943486690521,walking
1783088616409484300,4.759484375,1.681198351985216,-0.791487208429724,-1.7938304594308137,0.0632435157895088,0.2084464281797409,0.4744187295436859,walking
1783088616419529500,4.769529541015625,1.3793144232720136,-0.4762846561990678,-1.2486164977818728,0.1028787270188331,0.2498150616884231,0.5099151134490967,walking
1783088616429573400,4.779573486328125,1.15925975972265,-0.1708683155760169,-0.5607189892947674,0.130844846367836,0.2716361880302429,0.537389874458313,walking
1783088616439617300,4.7896171875,0.9808838449954986,0.2531337802000343,-0.0032557869255542,0.1419573724269867,0.2881742417812347,0.5672246813774109,walking
1783088616449662500,4.799662353515625,0.7243249126523733,0.6033373570546507,0.3446446275532245,0.1504392772912979,0.3121608197689056,0.6021547317504883,walking
1783088616459706400,4.809706298828125,0.5256609737865626,0.8034859815202653,0.5864923129767179,0.1653089225292205,0.2933524549007416,0.6511780619621277,walking
1783088616469750500,4.81975048828125,0.4408591225527227,0.8709275326304137,0.693530545938015,0.1733106672763824,0.1938855499029159,0.7289873957633972,walking
1783088616479795500,4.82979541015625,0.5256779249213636,0.896299435904622,0.6000777707368136,0.199212908744812,0.0122620668262243,0.8251475691795349,walking
1783088616489839400,4.83983935546875,0.7271139588490128,0.8509026894725858,0.3780447928518056,0.2605170011520386,-0.2165530025959015,0.92952299118042,walking
1783088616499883500,4.849883544921875,0.9010469226926564,0.8784265100836753,0.2303361113280057,0.3330249488353729,-0.4648017883300781,1.017738699913025,walking
1783088616509928400,4.859928466796875,1.0537354384556412,1.0407836024239658,0.2767114935338497,0.4021869599819183,-0.7160928845405579,1.102673888206482,walking
1783088616519972400,4.869972412109375,1.102984914793074,1.249458501563966,0.5636737474471331,0.4608981013298034,-0.9522015452384948,1.1914446353912354,walking
1783088616530016500,4.8800166015625,1.0371753487989306,1.4339838788315653,1.059967318582535,0.5267977714538574,-1.181956171989441,1.2727701663970947,walking
1783088616540060400,4.890060302734375,0.8430147127017378,1.5416241693392394,1.6974895615726708,0.6035627126693726,-1.4009660482406616,1.3382478952407837,walking
1783088616550105300,4.900105224609375,0.5207479211732745,1.5505942422583698,2.2920020993977785,0.6693997383117676,-1.5850263833999634,1.3755475282669067,walking
1783088616560149500,4.9101494140625,-0.0071814359366893,1.427057878960669,2.5070798513174055,0.7148066759109497,-1.6479713916778564,1.3894535303115845,walking
1783088616570193400,4.920193359375,-0.7318336808472872,1.129157978382334,2.1106319712907076,0.7137041687965393,-1.538341045379639,1.354296326637268,walking
1783088616580238300,4.93023828125,-1.3807114305883643,0.8003367237091064,1.3499404447495935,0.6739459037780762,-1.2489264011383057,1.2917875051498413,walking
1783088616590282500,4.940282470703125,-1.6406968302488325,0.5280951421309262,0.4619131626278162,0.6066219806671143,-0.8477008938789368,1.220967411994934,walking
1783088616600326400,4.950326416015625,-1.669118622612953,0.2278676753878593,-0.3948299234360456,0.5420952439308167,-0.4739412665367126,1.1575701236724854,walking
1783088616610371300,4.960371337890625,-1.6155284867227075,-0.1151338611334562,-1.305322719866037,0.5173467397689819,-0.1692876368761062,1.095447301864624,walking
1783088616620415500,4.97041552734375,-1.4579492763087152,-0.5347822186794131,-2.428597266232967,0.5289191603660583,0.044794462621212,1.0343316793441772,walking
1783088616630459400,4.98045947265625,-1.1613827432259916,-0.923398893623799,-3.4501895537137983,0.5466092228889465,0.157674953341484,0.9781845808029176,walking
1783088616640504300,4.99050439453125,-0.64721303139925,-1.171678804051876,-4.140735530883074,0.5396678447723389,0.2163312435150146,0.9171248078346252,walking
1783088616650548500,5.000548583984375,-0.3265311709746718,-1.036314640316367,-4.057281002604961,0.479839414358139,0.2380306720733642,0.8693138957023621,walking
1783088616660592400,5.01059228515625,-0.2060083102792501,-0.6347980787232518,-3.1067145544618366,0.4012326002120971,0.1892187595367431,0.8403539657592773,walking
1783088616670637300,5.02063720703125,-0.112689098329842,-0.2257828319378197,-1.7272224365353583,0.3582140207290649,0.0903116166591644,0.8519813418388367,walking
1783088616680681500,5.030681396484375,-0.1527560280412435,0.2892453964143991,-0.5740548562079668,0.3638426661491394,-0.0214411448687315,0.9119064807891846,walking
1783088616690725400,5.040725341796875,-0.2495323947072029,0.5972161707606166,0.3003027970016002,0.4006169140338897,-0.131438210606575,0.988538146018982,walking
1783088616700769500,5.05076953125,-0.369079103846848,0.6237025380827487,0.8646504981875419,0.4429675340652466,-0.2316848635673523,1.070185899734497,walking
1783088616710814500,5.060814453125,-0.4896151162847876,0.58349517698735,1.1768740346074105,0.4667780697345733,-0.3082922995090484,1.1392704248428345,walking
1783088616720858400,5.0708583984375,-0.41325726826936,0.3546581451106816,1.3970289436608552,0.4516491293907165,-0.3307532668113708,1.1525310277938845,walking
1783088616730902500,5.080902587890625,-0.1322013157904148,0.133269529543817,1.35084236202538,0.3616151213645935,-0.3107257783412933,1.105832576751709,walking
1783088616740947500,5.090947509765625,0.3234939952358603,0.2065766116864979,1.2147130591362714,0.2192925959825515,-0.338640809059143,1.0683245658874512,walking
1783088616750991400,5.100991455078125,0.7130944935858249,0.231125362009555,1.0737328090846538,0.0868250951170921,-0.3800694644451141,1.0595859289169312,walking
1783088616761035500,5.111035400390625,0.6770896987468004,-0.0164987148582935,0.8397668168216943,0.0224147848784923,-0.3807735443115234,1.035954236984253,walking
1783088616771080400,5.12108056640625,0.398613241367042,-0.2993488572776317,0.6387269426047801,0.0455531254410743,-0.3375962674617767,0.9792627096176147,walking
1783088616781124400,5.131124267578125,0.4506655001655221,-0.5059227655503898,0.6371206764519214,0.1438696831464767,-0.2789483368396759,0.9052910804748536,walking
1783088616791168500,5.14116845703125,0.4449830706149339,-0.8548327223978937,0.7985808199524879,0.2676020264625549,-0.2343270480632782,0.812991738319397,walking
1783088616801213400,5.15121337890625,0.2327703527376055,-1.1987948475796728,0.9848188463568688,0.3922433853149414,-0.197232648730278,0.7081708908081055,walking
1783088616811257300,5.16125732421875,0.1397246970325708,-1.3671899779751897,1.162342235907912,0.4973226487636566,-0.1472744047641754,0.621222198009491,walking
1783088616821301500,5.171301513671875,0.3176569596454501,-1.3445716111928223,1.1803589541137218,0.5589452981948853,-0.0736281797289848,0.5597148537635803,walking
1783088616831346400,5.181346435546875,0.2719701442256569,-0.925396204920858,0.7710819876521825,0.5562821626663208,0.0746470391750335,0.5392937660217285,walking
1783088616841390300,5.191390380859375,0.1131429795771837,-0.750269135921821,0.4709539626955986,0.4904404282569885,0.2186904400587082,0.5001643896102905,walking
1783088616851434500,5.2014345703125,0.1653384462386369,-0.920106135688722,0.5183002357602119,0.3949629068374634,0.3388365507125854,0.4527486860752105,walking
1783088616861478400,5.211478515625,0.1761047549247741,-1.0402218038227409,0.736330407744646,0.2860666811466217,0.3492470979690552,0.407142698764801,walking
1783088616871523300,5.2215234375,-0.0038373862057924,-1.109961695003137,0.8871148434519768,0.2255881428718567,0.2762003242969513,0.3836376368999481,walking
1783088616881567500,5.2315673828125,-0.1318941495373845,-0.9848021144177764,0.7698544916838407,0.2463318556547165,0.1747227758169174,0.398903489112854,walking
1783088616891611400,5.241611328125,-0.2613371065303683,-0.8971752688910811,0.4854004211992025,0.3357371091842651,0.041279774159193,0.4273756146430969,walking
1783088616901656300,5.25165625,-0.2055117589339613,-1.014631435492262,0.3272124312371015,0.4311799705028534,-0.1092279329895973,0.4330681264400482,walking
1783088616911700500,5.261700439453125,-0.0048281508088111,-1.212508388698846,0.399663334941864,0.4716485738754272,-0.2410730570554733,0.4284515380859375,walking
1783088616921744400,5.271744384765625,0.221827518440783,-1.3509782633647325,0.5512473965942859,0.4348320066928863,-0.3413661122322082,0.4194031953811645,walking
1783088616931790000,5.2817900390625,0.5442372255712747,-1.2105443220842629,0.4993897835850715,0.3611564338207245,-0.3984802663326263,0.4202820360660553,walking
1783088616941834000,5.291833984375,0.7794970570370554,-0.7314610481426119,-0.1115671085625886,0.3100286424160003,-0.3624548017978668,0.4686248898506164,walking
1783088616951878100,5.301878173828125,0.8613406429871916,-0.3200491154789924,-1.0433762492656706,0.3256885707378387,-0.2362150996923446,0.5608224868774414,walking
1783088616961923000,5.311923095703125,0.5621060597389936,-0.1196130523741245,-1.5315630863130092,0.3873135447502136,-0.0921346023678779,0.6563519239425659,walking
1783088616971967000,5.321967041015625,0.3280225785762071,0.1144681637663394,-1.5841782396912574,0.4569312334060669,0.0532673336565494,0.7748769521713257,walking
1783088616982011100,5.33201123046875,0.227580967400968,0.2987394201423973,-1.4342986438691616,0.4989072978496551,0.1733131408691406,0.8764005303382874,walking
1783088616992056000,5.34205615234375,-0.0531827241331338,-0.0823600841049104,-1.1962392448127268,0.4837589561939239,0.246825709939003,0.860380232334137,walking
1783088617002100000,5.352099853515625,-0.5279544915512204,-1.0280525695361196,-0.9004337592303753,0.4400289058685303,0.2796503007411957,0.726606547832489,walking
1783088617012144000,5.36214404296875,-1.107970301990211,-1.3907567315235734,-1.2533587238729,0.4271056354045868,0.3830070495605469,0.6080841422080994,walking
1783088617022188300,5.372188232421875,-0.5295896915376186,-0.8722781435217708,-1.9768957010179755,0.4506658315658569,0.5366940498352051,0.5750346183776855,walking
1783088617032233000,5.38223291015625,0.274075592072308,-0.3082541943974792,-2.5795880381673575,0.4503640830516815,0.71168452501297,0.5407043695449829,walking
1783088617042277000,5.392277099609375,0.2519602063760161,-0.0848324290351942,-3.0531121436119077,0.3986887335777282,0.8604066967964172,0.4995891749858856,walking
1783088617052321300,5.4023212890625,0.3222939717963338,0.1053838898830115,-2.7291625135630366,0.3236387372016907,0.8950320482254028,0.5065346956253052,walking
1783088617062366000,5.412365966796875,0.4271545684576034,0.156108589872159,-1.7485808663845062,0.2924903929233551,0.7678229212760925,0.5452456474304199,walking
1783088617072410000,5.42241015625,0.0587000262498855,0.2846437843704596,-0.8318067977279424,0.3290702402591705,0.592873752117157,0.6053944826126099,walking
1783088617082454000,5.4324541015625,-0.8058484728679061,0.3896078414062038,-0.4402934514939784,0.4056494534015655,0.4700372815132141,0.6717244386672974,walking
1783088617092499000,5.4424990234375,-0.6787871503144502,0.1558603507321327,0.2687532280057668,0.4796451330184936,0.3282793462276459,0.7040842771530151,walking
1783088617102543000,5.452543212890625,-0.2581248664855957,0.1622143228687345,0.8079092047899961,0.5064839124679565,0.199267029762268,0.7168672680854797,walking
1783088617112587000,5.4625869140625,-0.3940224064454436,0.3306649828437715,0.4495832578867673,0.4679040610790252,0.1392500102519989,0.7199626564979553,walking
1783088617122632000,5.4726318359375,0.3894084829092025,0.3733283953217789,0.3354869231075048,0.4003197848796844,0.0787830352783203,0.7441988587379456,walking
1783088617132676000,5.482676025390625,0.9626105216801166,0.5452005907107145,0.1174012215435504,0.3297966122627258,0.0072340159676969,0.767246663570404,walking
1783088617142720000,5.492719970703125,1.4516735570400952,0.596784099486284,-0.2867126630663871,0.2558209598064422,-0.0442611500620842,0.7951211333274841,walking
1783088617152765000,5.502764892578125,1.850596887269616,0.5721618090029805,-0.4035813851684331,0.1851648688316345,-0.1000836715102195,0.8240278959274292,walking
1783088617162809000,5.51280908203125,2.2345812993034717,0.6270920343905687,-0.1940764649450778,0.1315963268280029,-0.1851136088371276,0.8540127873420715,walking
1783088617172853000,5.52285302734375,2.5825591629326343,0.6533882129028439,0.2343330720096826,0.1016280353069305,-0.2914602756500244,0.8829938769340515,walking
1783088617182897200,5.532897216796875,2.3801959311574694,0.7429233762688935,0.5105144041895866,0.0809830799698829,-0.3484461009502411,0.9311763644218444,walking
1783088617192942000,5.542942138671875,2.218523021689057,0.8160211265098303,0.7854185560405254,0.0794437751173973,-0.3675694465637207,1.0028722286224363,walking
1783088617202986000,5.552986083984375,2.1782585235789416,0.9933423445522784,1.05094931486845,0.0907105356454849,-0.3456305861473083,1.1038821935653689,walking
1783088617213030100,5.563030029296875,1.9084177925974128,1.130800411827117,0.9749047705858944,0.1199464574456214,-0.260407030582428,1.208994746208191,walking
1783088617223075000,5.573074951171875,1.680610615225136,1.2581969576843082,0.7620528780221939,0.1685914099216461,-0.1085981503129005,1.3326201438903809,walking
1783088617233119000,5.583118896484375,1.6319576434761285,1.3943300599656998,0.621444383892417,0.2260935753583908,0.0662149414420127,1.4613301753997805,walking
1783088617243163100,5.5931630859375,1.443904384343326,1.3310478204920888,0.6830366244524717,0.2459145784378051,0.194903627038002,1.5613459348678589,walking
1783088617253208000,5.6032080078125,1.190989069199562,0.9741025142922995,0.7095984681636095,0.1991649121046066,0.3037185072898865,1.6311068534851074,walking
1783088617263252000,5.613251953125,0.957258931519091,0.4808389585025608,0.6963952877193689,0.1014413684606552,0.3503934741020202,1.663665533065796,walking
1783088617273296100,5.623296142578125,0.7847258976012468,0.0954202028166502,0.6392787312686443,0.0019557883497327,0.3643977046012878,1.633772611618042,walking
1783088617283341000,5.633341064453125,0.7672066075235605,0.0294778772883117,0.3328893078297376,-0.0877044722437858,0.3444351851940155,1.5909738540649414,walking
1783088617293385000,5.643385009765625,0.9725076463162898,0.2009458392579108,-0.1251677638918161,-0.1571554541587829,0.2906901836395263,1.5822207927703855,walking
1783088617303429000,5.65342919921875,1.282661682985723,0.2792708956930786,-0.6200789407581091,-0.1834194809198379,0.2272940874099731,1.6002988815307615,walking
1783088617313473000,5.66347314453125,1.3875573509603738,0.1314420949209481,-1.027780036205053,-0.1790710687637329,0.1836557686328888,1.599521279335022,walking
1783088617323518000,5.67351806640625,1.2892828546911477,-0.1861906801313161,-1.0879431207448242,-0.1806270033121109,0.1554011851549148,1.5826407670974731,walking
1783088617333562000,5.68356201171875,1.3010264839768408,-0.4001297834098339,-0.7317389883011579,-0.1982464790344238,0.1017392799258232,1.560388445854187,walking
1783088617343606000,5.69360595703125,1.2471480326645077,-0.3982619437113404,-0.2878571569263934,-0.2187514901161193,0.0474608764052391,1.533785343170166,walking
1783088617353651000,5.70365087890625,1.3078412785582243,-0.2608922123070806,0.1792015518963337,-0.2262975573539734,0.0042798477225005,1.5006883144378662,walking
1783088617363695000,5.713695068359375,1.3552619320333004,-0.1612318877026438,0.6318032808214425,-0.2269907295703888,-0.0438531525433063,1.4507043361663818,walking
1783088617373739000,5.723739013671875,1.288958591172844,-0.058569897064194,0.9828671277672052,-0.2281947433948516,-0.0951885133981704,1.3922284841537476,walking
1783088617383784000,5.733783935546875,1.286310707012564,-0.1554794616557657,1.2206243290066718,-0.2355505675077438,-0.1950894594192505,1.3462988138198853,walking
1783088617393828000,5.743828125,1.268052435135841,-0.5058012580625713,1.0468477247685193,-0.2311020195484161,-0.3021064400672912,1.292986273765564,walking
1783088617403872000,5.7538720703125,1.318734574624896,-0.8628468097664416,0.5997972002297639,-0.2050341516733169,-0.4003657400608063,1.2430974245071411,walking
1783088617413917200,5.763917236328125,1.4884322389863431,-0.988815222516656,0.1298071141302585,-0.1510843783617019,-0.4638152718544006,1.2204853296279907,walking
1783088617423961000,5.773961181640625,1.6878279992580414,-0.9224367705933748,-0.2788900066167116,-0.0890429764986038,-0.4736524522304535,1.226241946220398,walking
1783088617434005000,5.7840048828125,1.7787223221480846,-0.7243177522592246,-0.5306231262385845,-0.0487951599061489,-0.4313148558139801,1.2520588636398315,walking
1783088617444050200,5.79405029296875,1.775133357745409,-0.5899284249052406,-0.6608551877826452,-0.0526917055249214,-0.3587725758552551,1.284320831298828,walking
1783088617454094000,5.804093994140625,1.7757462289467454,-0.5852110409945249,-0.6754910313785075,-0.0846688151359558,-0.2794143855571747,1.2907392978668213,walking
1783088617464138000,5.814137939453125,1.625707058648765,-0.6760211927324533,-0.5441448711127043,-0.1281885206699371,-0.2051642686128616,1.276232361793518,walking
1783088617474182100,5.82418212890625,1.4655667655751108,-0.8497530810460447,-0.3905149828463792,-0.1589211374521255,-0.1435746699571609,1.260758876800537,walking
1783088617484227000,5.83422705078125,1.3820619684144857,-1.0396193809501826,-0.227047591176629,-0.1648027300834655,-0.083566203713417,1.2437710762023926,walking
1783088617494271000,5.84427099609375,1.4770529129683971,-1.249165509966761,-0.0836877525120973,-0.1541900336742401,-0.0189376771450042,1.2278549671173096,walking
1783088617504315100,5.854315185546875,1.6033710159391164,-1.4455799163401126,-0.0208083947509527,-0.1437260210514068,0.0276009663939476,1.192451000213623,walking
1783088617514360000,5.864360107421875,1.6849502518646418,-1.5452607722759246,-0.0315016382008791,-0.1334952116012573,0.0630694776773452,1.1362996101379397,walking
1783088617524404000,5.874404052734375,1.535444896182418,-1.4854729507893325,-0.0878325972318649,-0.1029363647103309,0.0887359529733657,1.072985291481018,walking
1783088617534448000,5.8844482421875,1.3645615291677415,-1.4315249413721265,-0.0397363825827837,-0.0488310530781745,0.0772276297211647,1.021801471710205,walking
1783088617544493000,5.8944931640625,1.3983232212550938,-1.3299771225206554,0.1662479622989892,0.0013674013316631,-0.0056723137386143,0.976215124130249,walking
1783088617554537000,5.904536865234375,1.320713181221485,-1.3313212306059896,0.1068932715326547,0.0403179973363876,-0.1289460361003875,0.941619038581848,walking
1783088617564581000,5.9145810546875,1.3767721914432942,-1.306701607003808,-0.1704921757400035,0.078037716448307,-0.2416343241930008,0.9208219051361084,walking
1783088617574626000,5.9246259765625,1.4172040089443323,-1.154745351038128,-0.4295294808954,0.1103519797325134,-0.3242138922214508,0.9214224219322203,walking
1783088617584670000,5.934669921875,1.5735707748286425,-0.9386204281531274,-0.6059674132972955,0.1483922302722931,-0.3909714818000793,0.9439436793327332,walking
1783088617594714000,5.944714111328125,1.6510954746663569,-0.8780135453686118,-0.8415589609354734,0.1956090182065963,-0.4118988513946533,0.9564775824546814,walking
1783088617604759000,5.954759033203125,1.738700108361244,-0.992059172873944,-0.955410965564847,0.2388407588005066,-0.3942532241344452,0.9338666796684264,walking
1783088617614803200,5.96480322265625,1.6190071226187048,-1.1621677561238408,-0.9673708679497242,0.2585944831371307,-0.3386823832988739,0.8738983869552612,walking
1783088617624847000,5.97484716796875,1.4209633614778518,-1.196698825148493,-0.8759937299787998,0.2488553524017334,-0.2243599146604538,0.8100656867027283,walking
1783088617634891000,5.98489111328125,1.061831943410635,-0.849380594471842,-0.839776753693819,0.2314265668392181,-0.0734668150544166,0.7904472351074219,walking
1783088617644936200,5.994936279296875,1.258295303492248,-0.4351439597763121,-0.6043780982792377,0.2540527284145355,0.0165745243430137,0.7930482625961304,walking
1783088617654980000,6.00497998046875,1.2596435032308102,-0.1980797092370688,-0.7481213833034038,0.3196415901184082,0.0563712045550346,0.7751800417900085,walking
1783088617665024000,6.01502392578125,1.319488023340702,-0.1170145603135228,-1.262996905311942,0.3883595466613769,0.0462269224226474,0.7669360637664795,walking
1783088617675069200,6.025069091796875,1.4744849621765317,-0.192973033747822,-1.498761471429467,0.4353976249694824,-0.0154127394780516,0.7494170069694519,walking
1783088617685113000,6.035113037109375,1.4602842951275408,-0.3790196292333305,-1.708580279907584,0.4459038078784942,-0.0838836953043937,0.7251144051551819,walking
1783088617695157000,6.045156982421875,1.4018220231562852,-0.3037427083224058,-1.9044401211380957,0.4284909963607788,-0.1476805210113525,0.7411559224128723,walking
1783088617705202200,6.0552021484375,1.3512868909224869,0.0458431750252842,-1.9613643698871135,0.4188380539417267,-0.1931019574403762,0.7784819006919861,walking
1783088617715246000,6.06524609375,1.2962524014428256,0.4818665479846298,-1.8533850566834211,0.4232581257820129,-0.2090998291969299,0.8398616909980774,walking
1783088617725290000,6.0752900390625,1.250975335867703,0.9291234087504446,-1.6079221033722162,0.4290995895862579,-0.213186115026474,0.912874698638916,walking
1783088617735335200,6.085335205078125,1.1386185382321476,1.252214376143366,-1.316242757809162,0.401975005865097,-0.1932488977909088,0.9929937720298768,walking
1783088617745379000,6.095379150390625,1.043520187781006,1.3411284850016236,-0.9785790751844644,0.3576684296131134,-0.1730512678623199,1.0631123781204224,walking
1783088617755423000,6.105423095703125,0.9312509222984312,1.1368440759055316,-0.4886111999392509,0.3480144441127777,-0.1843230873346328,1.1001079082489014,walking
1783088617765467100,6.115467041015625,0.7698990614779293,0.8665313434980809,0.0096510409206151,0.3896094858646393,-0.2190845906734466,1.1112428903579712,walking
1783088617775512000,6.125511962890625,0.7689025977864861,0.6415519368976355,0.4025543802082538,0.4459103047847748,-0.257466584444046,1.1174782514572144,walking
1783088617785556000,6.135555908203125,0.9288364085026084,0.480930874569714,0.737475486126542,0.4825209677219391,-0.3057798743247986,1.1268187761306765,walking
1783088617795600100,6.14560009765625,1.117092788992077,0.5815953347153962,1.0944605398148295,0.501477062702179,-0.3668293952941894,1.140676736831665,walking
1783088617805645000,6.15564501953125,1.2643018504306671,0.7267943715058267,1.3901929601609706,0.5192002058029175,-0.4392473399639129,1.165768027305603,walking
1783088617815689000,6.16568896484375,1.2869096958190205,0.8358319615907966,1.6632354097932576,0.5336718559265137,-0.5303900837898254,1.199252724647522,walking
1783088617825733000,6.175733154296875,1.0904255852103233,0.9142734840124844,1.905998456496,0.5368764400482178,-0.6327531933784485,1.2441805601119995,walking
1783088617835778000,6.185778076171875,0.8714537484616041,0.9795368143007158,2.1193395938813686,0.528412401676178,-0.7486193776130676,1.3033109903335571,walking
1783088617845822200,6.195822265625,0.6245239374682306,1.0449648336313664,2.3131734822422265,0.5258054733276367,-0.8750098943710327,1.3632436990737915,walking
1783088617855866000,6.2058662109375,0.4933478730723261,1.1897381923556327,2.4419565140217543,0.5289690494537354,-1.0040147304534912,1.4291390180587769,walking
1783088617865911000,6.2159111328125,0.4984983877032995,1.3408802093289791,2.5439795491695403,0.5186969637870789,-1.1145657300949097,1.4932764768600464,walking
1783088617875955200,6.225955078125,0.4666299620166421,1.374037651912868,2.5276713884472843,0.4959479868412018,-1.1713794469833374,1.5415323972702026,walking
1783088617885998800,6.235998779296875,0.3316811010837555,1.2660387572258711,2.1750848619788883,0.4815376400947571,-1.1414395570755005,1.580936312675476,walking
1783088617896044000,6.2460439453125,0.1829421997293829,1.0229923635371028,1.608069402888417,0.4843930602073669,-1.00296151638031,1.58930242061615,walking
1783088617906088200,6.256088134765625,0.0934010450139641,0.7409522223263979,1.0494546923965216,0.4942458271980285,-0.8007481694221497,1.554169774055481,walking
1783088617916132000,6.266132080078125,-0.1830097120076418,0.4755442130953073,0.4107259962260723,0.5056042075157166,-0.5679066181182861,1.5042030811309814,walking
1783088617926175200,6.27617529296875,-0.5313689761698246,0.1592566421069204,-0.3843383400380611,0.5165610909461975,-0.3241533637046814,1.4625723361968994,walking
1783088617936220400,6.286220458984375,-0.8330249413460492,-0.1094096382677555,-1.5892121422052383,0.5355299711227417,-0.0241245850920677,1.4230248928070068,walking
1783088617946264600,6.2962646484375,-0.9181102856963872,-0.2969426729187369,-2.765302332958579,0.5634803771972656,0.2883273959159851,1.3757386207580566,walking
1783088617956308500,6.30630859375,-0.7930351685240864,-0.2975717646025121,-3.4942402923643585,0.5864693522453308,0.588839590549469,1.3226426839828491,walking
1783088617966353400,6.316353515625,-0.7413917827874421,-0.1835048020482063,-3.7262060507208106,0.5724688172340393,0.8528032898902893,1.265440583229065,walking
1783088617976397600,6.3263974609375,-0.8910515983790158,-0.0075768649950623,-3.2796535388320684,0.51039719581604,1.005095362663269,1.2060911655426023,walking
1783088617986441500,6.33644140625,-0.8645920459985732,0.1499513458840549,-2.3622341580092905,0.4045838117599487,1.0463037490844729,1.194565773010254,walking
1783088617996486400,6.346486328125,-0.8537015264108777,0.4362614194989204,-1.5997230148255823,0.3095358610153198,1.007800817489624,1.2261157035827637,walking
1783088618006530600,6.356530517578125,-0.9011651422448456,0.6957995137833058,-0.9869716404765844,0.2708198726177215,0.9024749994277954,1.281736135482788,walking
1783088618016574500,6.366574462890625,-0.8871258032374083,0.8262529629930854,-0.4302864367425441,0.2905909121036529,0.7328431010246277,1.3539727926254272,walking
1783088618026619400,6.376619384765625,-1.0918750533662736,0.7685283576466143,-0.0744961457967758,0.3284985423088074,0.5758387446403503,1.4053071737289429,walking
1783088618036663300,6.386663330078125,-1.2789809486463666,0.5797315866701305,0.3175333332657813,0.3208446204662323,0.4288258552551269,1.4468863010406494,walking
1783088618046707500,6.39670751953125,-1.1758405999064443,0.4817202713817358,0.5397299772799015,0.2833835780620575,0.3442541658878326,1.4681373834609983,walking
1783088618056751600,6.406751708984375,-1.0720337500818071,0.3821617266513407,0.2809633057594299,0.2787635028362274,0.3329903185367584,1.4679051637649536,walking
1783088618066796300,6.41679638671875,-0.8754265976153314,0.1466612182974815,-0.0905091229647398,0.3302765190601349,0.3831725120544433,1.4606362581253052,walking
1783088618076840400,6.42684033203125,-0.650776130708307,-0.3178801008768379,-0.2091185512542724,0.3971660435199737,0.4250262081623077,1.4268841743469238,walking
1783088618086884600,6.436884521484375,-0.3997418070055544,-0.7117027469664812,-0.173204941830039,0.4470584094524383,0.4730997085571289,1.36086106300354,walking
1783088618096929300,6.44692919921875,-0.1461219968542456,-1.1270697008661923,-0.0737877052664756,0.4512145221233368,0.4981307685375213,1.2682682275772097,walking
1783088618106973400,6.456973388671875,0.1865966305837035,-1.4231892208337782,0.1422498315960168,0.4275419414043426,0.4601355195045471,1.1607935428619385,walking
1783088618117017600,6.467017578125,0.4212802695967256,-1.466843653643131,0.3010480624109506,0.3840953707695007,0.3864881992340088,1.0476826429367063,walking
1783088618127062300,6.477062255859375,0.5338267445854842,-1.4305856146954,0.378418886861205,0.316396564245224,0.28620246052742,0.9676603078842164,walking
1783088618137106400,6.4871064453125,0.4609600996866822,-1.30073436916247,0.5007084649682044,0.263794869184494,0.1787822693586349,0.9299129247665404,walking
1783088618147150600,6.497150634765625,0.16121113717556,-1.2674389794126153,0.523128386569023,0.2346515655517578,0.0835951641201973,0.9153538942337036,walking
1783088618157195300,6.5071953125,-0.2011727068163454,-1.2744549956545232,0.5731885947674512,0.2216635942459106,-0.0013823108747601,0.9224647879600524,walking
1783088618167239400,6.517239501953125,-0.2026303582787513,-1.263696285752952,0.6751607765108346,0.2169640064239502,-0.0842595696449279,0.9441269636154176,walking
1783088618177283600,6.52728369140625,-0.4054010018110275,-1.3060367133542894,0.5923094748228788,0.2132875174283981,-0.1415803730487823,0.949467957019806,walking
1783088618187327500,6.537327392578125,-0.4563971756853163,-1.276030428277701,0.7169669511049985,0.2071345001459121,-0.2123236656188964,0.9761325716972352,walking
1783088618197372400,6.547372314453125,-0.1964719817794859,-1.2584864421501756,0.8751672160267829,0.2171053737401962,-0.2875409126281738,1.0186755657196045,walking
1783088618207416300,6.557416259765625,-0.2473456983178854,-1.310117406796664,0.6977373499780893,0.2470048367977142,-0.3428148627281189,1.0383011102676392,walking
1783088618217460500,6.56746044921875,-0.1121767648935317,-1.414870013038814,0.4765799858838319,0.2870606482028961,-0.4062574803829193,1.057772517204285,walking
1783088618227505400,6.57750537109375,0.4874504855968057,-1.4504917999096214,0.5320242252081633,0.3308299779891968,-0.4859478175640106,1.0756158828735352,walking
1783088618237549300,6.58754931640625,0.9360022084787488,-1.4313254732772709,0.5618430248886347,0.3605969250202179,-0.5641725659370422,1.0777275562286377,walking
1783088618247593500,6.597593505859375,1.319513303912431,-1.413261554928869,0.5160276146531104,0.3414996564388275,-0.632847011089325,1.07606041431427,walking
1783088618257638400,6.607638427734375,1.5584423254102469,-1.4841523697100578,0.3796025436878204,0.2797350883483886,-0.6953068971633911,1.061795949935913,walking
1783088618267682300,6.617682373046875,1.5038753073118627,-1.4845660650774837,0.1815484072834253,0.2052698582410812,-0.7557080388069153,1.041242241859436,walking
1783088618277726500,6.6277265625,1.5678072428658605,-1.3969408269859849,0.0751332746565341,0.1309378296136856,-0.8257896900177002,1.041313886642456,walking
1783088618287771400,6.637771484375,1.4327251109421253,-1.170166353662312,-0.0984486837923526,0.0944926813244819,-0.9001085162162781,1.087151050567627,walking
1783088618297815300,6.647815185546875,1.0655044944435357,-0.9189902834013104,-0.2620452547997236,0.1141662523150444,-0.9880900382995604,1.174701690673828,walking
1783088618307859500,6.657859375,0.7705411587737501,-0.854193401581049,-0.3073328417688608,0.2113251090049743,-1.0824519395828247,1.269721508026123,walking
1783088618317904400,6.667904296875,0.4925634446963667,-0.679293054009974,-0.5860211883336305,0.3853943645954132,-1.1260383129119873,1.376351833343506,walking
1783088618327948300,6.6779482421875,0.2466360887438058,-0.2795676136173308,-1.0864438220977783,0.5762436985969543,-1.0487339496612549,1.4863835573196411,walking
1783088618337992400,6.687992431640625,0.3138400317057967,-0.1267336980342865,-1.39752344917953,0.6988298296928406,-0.9144262671470642,1.5445064306259155,walking
1783088618348036600,6.69803662109375,0.320567440264672,-0.260965496739,-1.3262643856078389,0.6632140278816223,-0.7771890163421631,1.5477073192596436,walking
1783088618358081300,6.708081298828125,0.3983421693406999,-0.6388732192076743,-1.1950637712925671,0.5112642049789429,-0.6475450396537781,1.4825443029403689,walking
1783088618368125400,6.71812548828125,0.5419266105413436,-1.1675305983312427,-1.3677999265670775,0.3675631880760193,-0.4962911903858185,1.346096158027649,walking
1783088618378169300,6.72816943359375,0.8059662540286779,-1.2574866174578665,-1.8462807776361705,0.2819012701511383,-0.3130185902118683,1.2262085676193235,walking
1783088618388214300,6.73821435546875,1.251835167567432,-0.8234145246967672,-2.2912521578133105,0.2711030840873718,-0.1327646672725677,1.1659594774246216,walking
1783088618398258400,6.748258544921875,1.8125673086047172,-0.165718677727878,-2.5323995860129593,0.3146622776985168,0.0428436547517776,1.1664950847625732,walking
1783088618408302300,6.75830224609375,1.7771578493103384,0.3073351798564195,-2.5620541350424286,0.3680594861507416,0.2131000459194183,1.22940194606781,walking
1783088618418347300,6.76834716796875,0.906888196066767,0.5215561688162386,-2.272177454987168,0.3721122741699219,0.3539988696575165,1.3954845666885376,walking
1783088618428391400,6.778391357421875,-0.0409220852360129,0.4395226132519543,-1.7641437616974114,0.3099170625209808,0.4511888325214386,1.5717312097549438,walking
1783088618438435300,6.788435302734375,-0.1518470965027809,0.2735281873226166,-1.0703320607304572,0.292988121509552,0.5139592885971069,1.689926266670227,walking
1783088618448480300,6.798480224609375,-0.0104950905293226,0.4368864195294678,-0.5574491738438606,0.342960774898529,0.5134758353233337,1.781034231185913,walking
1783088618458524400,6.8085244140625,0.0948114963337779,0.6884380451045929,-0.2593792504608631,0.4031791090965271,0.4726743400096893,1.8719407320022583,walking
1783088618468568300,6.818568359375,0.2039946323692798,0.706619160091877,-0.0067594111323356,0.4237909018993377,0.4105178117752075,1.9357198476791384,walking
1783088618478613500,6.828613525390625,0.0398994641900062,0.7371940388366579,0.1560433791488409,0.3902843296527862,0.3525988459587097,1.9903676509857176,walking
1783088618488657400,6.838657470703125,0.0887628638193011,0.7587810167446732,0.2941016042739153,0.3245586454868316,0.2736466825008392,2.01769495010376,walking
1783088618498701300,6.848701416015625,1.0565975498884916,0.6729841631241142,0.8248854740321636,0.2785645127296448,0.038586501032114,2.002148151397705,walking
1783088618508745500,6.858745361328125,2.1119149968385695,0.7877759328216314,1.2993933298170566,0.2908240258693695,-0.2398686558008194,1.973510146141052,walking
1783088618518790400,6.868790283203125,1.994197256691754,0.7377883514679968,1.1013128899276257,0.3230900764465332,-0.4298697412014007,1.9547595977783203,walking
1783088618528834300,6.878834228515625,1.602081268389523,0.5164217285372317,0.9879361015945672,0.3199027776718139,-0.5494400262832642,1.966521143913269,walking
1783088618538878500,6.88887841796875,1.733697331637889,0.3621149639226496,1.3879367056667804,0.2784115374088287,-0.6930416822433472,1.997974634170532,walking
1783088618548923400,6.89892333984375,2.0273886015452445,0.4154363658741116,1.7438006463706492,0.2480735629796981,-0.8200269341468811,2.00001859664917,walking
1783088618558967300,6.90896728515625,1.890720223343372,0.3503874089889228,1.3371388308435677,0.2193090170621872,-0.8218557238578796,1.962866187095642,walking
1783088618569011500,6.919011474609375,1.6522222867392002,0.2341184063456952,0.8068553118228912,0.18551667034626,-0.7222324013710022,1.9310634136199951,walking
1783088618579056400,6.929056396484375,1.535894831907004,0.3546577797845006,0.6418786846339702,0.1481852829456329,-0.6004530191421509,1.9316784143447876,walking
1783088618589100300,6.939100341796875,1.6010585012130438,0.5836812010787427,0.6733937668383121,0.1563834697008133,-0.5133184790611267,1.937448501586914,walking
1783088618599144400,6.94914453125,1.5220635826922952,0.5655325270563364,0.6384229912221432,0.2281745672225952,-0.4509128630161285,1.9301674365997312,walking
1783088618609189600,6.959189697265625,1.4903236056908964,0.420155064959079,0.6463496925681829,0.3457401990890503,-0.4113886058330536,1.9055097103118896,walking
1783088618619233300,6.9692333984375,1.336723089649528,0.3257901433490217,0.5089847104042768,0.4579524993896484,-0.3471028208732605,1.8724050521850584,walking
1783088618629277400,6.97927734375,1.1449253832913937,0.1792496288217604,0.3692009766608476,0.5011574625968933,-0.2658984363079071,1.8395321369171145,walking
1783088618639321300,6.9893212890625,1.2722737060926854,0.0215616973362863,0.3149368870317935,0.480711817741394,-0.1940335780382156,1.7975668907165527,walking
1783088618649366300,6.9993662109375,1.7257538252875209,-0.0535121022179722,0.1693926900655031,0.41842782497406,-0.1260369271039962,1.6998354196548462,walking
1783088618659410400,7.009410400390625,1.7371883886240422,-0.314330883962661,-0.4322252958506345,0.3294659852981567,-0.0278509780764579,1.5367889404296875,walking
1783088618669454300,7.019454345703125,1.8476462207704785,-0.6483801754824817,-0.6633458355545997,0.2216292917728424,0.0148660792037844,1.3346904516220093,walking
1783088618679499300,7.029499267578125,1.9406493525080384,-0.8057583103664219,-0.5675900441080332,0.114962488412857,-0.0173930563032627,1.1182830333709717,walking
1783088618689543400,7.03954345703125,1.6550957963488997,-0.7345189744085073,-0.3736743226826191,0.0535443201661109,-0.1099278777837753,0.9776068925857544,walking
1783088618699587300,7.04958740234375,1.3962312174119054,-0.7538828694395721,0.025688568007946,0.0419316068291664,-0.3057762086391449,0.9234482645988464,walking
1783088618709632500,7.059632568359375,1.369960611732304,-1.7123120137818155,0.17935761924088,0.069465734064579,-0.496017187833786,0.7743338346481323,walking
1783088618719676400,7.069676513671875,1.481240135525167,-1.2356311978720127,0.2563818222105503,0.0823418572545051,-0.5772766470909119,0.7163216471672058,walking
1783088618729720300,7.07972021484375,1.1454790716513992,-0.158147804082185,0.5470557901233435,-0.0114414580166339,-0.6564570069313049,0.7996194362640381,walking
1783088618739765500,7.089765625,1.2661759737394749,-0.5790491573639214,0.9489946687817572,-0.1019702926278114,-0.8631303310394287,0.851492166519165,walking
1783088618749809400,7.099809326171875,1.4230768465004862,-1.52846088251397,1.2899269978135823,-0.0361335650086402,-1.12336003780365,0.9019214510917664,walking
1783088618759853300,7.109853271484375,1.3344871472910045,-1.4642774564169347,0.7171312017560004,0.0782638490200042,-1.3304592370986938,0.940043807029724,walking
1783088618769898500,7.1198984375,2.037940829089284,-0.7817290538728237,0.066138651818037,0.1611052304506302,-1.3437687158584597,0.961345911026001,walking
1783088618779942400,7.1299423828125,1.948317841309309,-0.8209662547618151,0.1337561440169811,0.2781197428703308,-1.3478145599365234,1.0376780033111572,walking
1783088618789986300,7.139986328125,1.4738535324051976,-1.0382805335618557,-0.1510311039447784,0.3560734987258911,-1.238659381866455,1.1063282489776611,walking
1783088618800030500,7.150030517578125,1.2699398563176392,-0.7639264168091118,-0.7108698032736778,0.3715478181838989,-1.0687693357467651,1.196016550064087,walking
1783088618810075600,7.16007568359375,1.5775255038037894,-0.3776407420955598,-0.4188613718867301,0.3413393497467041,-0.9427528977394104,1.3452950716018677,walking
1783088618820119300,7.170119384765625,2.1100606011435388,-0.2864385223001242,-0.2572632812201976,0.2808781266212463,-0.8237202763557434,1.431943655014038,walking
1783088618830163500,7.18016357421875,2.097902253577113,-0.3744742408886551,-0.6238853473037481,0.2352486103773117,-0.6378135085105896,1.4828896522521973,walking
1783088618840208600,7.190208740234375,2.073800662499666,-0.4296615828424692,-1.1014280407398938,0.2154722362756729,-0.4151573181152344,1.5639832019805908,walking
1783088618850252300,7.200252197265625,1.9780574382737277,-0.4247784869760274,-1.502594181460142,0.2453493922948837,-0.200490191578865,1.6641521453857422,walking
1783088618860296400,7.21029638671875,1.8101584938973188,-0.3700070323467254,-1.667822737583518,0.3091821670532226,0.0028552135918289,1.773607850074768,walking
1783088618870341400,7.22034130859375,1.722068414773047,-0.3607303776964545,-1.3900409844696522,0.3713171780109405,0.1508883535861969,1.8484647274017336,walking
1783088618880385300,7.23038525390625,1.7054767609342931,-0.4386000915795564,-0.9552443768262864,0.4089519083499908,0.2275785952806472,1.8623483180999756,walking
1783088618890429400,7.240429443359375,1.6887565122798085,-0.4747535011090338,-0.5696843860387801,0.4150863289833069,0.2527365386486053,1.823803424835205,walking
1783088618900474400,7.250474365234375,1.4922665564522146,-0.5758370634496212,-0.3600000175952911,0.3884584307670593,0.2320701479911804,1.7502509355545044,walking
1783088618910518500,7.2605185546875,1.2727014299854635,-0.7297212187379598,-0.1640595123440027,0.3624650239944458,0.1764178574085235,1.674580454826355,walking
1783088618920562400,7.2705625,1.0398463215738534,-0.7325975048266351,-0.0650695612818002,0.3678310215473175,0.122804157435894,1.6161930561065674,walking
1783088618930606600,7.280606689453125,0.8296917052701115,-0.6883290317721664,-0.086994977363944,0.395106554031372,0.0621395483613014,1.5805962085723877,walking
1783088618940651800,7.29065185546875,0.7819748453274369,-0.5313533402092755,-0.1752735647976398,0.4256596565246582,-0.0171363670378923,1.5957900285720823,walking
1783088618950695700,7.30069580078125,0.8554264505073428,-0.1865169894762337,-0.4553063117086887,0.4605698585510254,-0.064881794154644,1.6444523334503174,walking
1783088618960739600,7.310739501953125,0.8889400130525231,0.0528204666920006,-0.8962643645912408,0.4903498589992523,-0.0549609847366809,1.7092432975769043,walking
1783088618970784800,7.32078466796875,0.9927309346556664,0.1709047020636498,-1.1580255417525769,0.5008723139762878,-0.0199645385146141,1.7757792472839355,walking
1783088618980828700,7.33082861328125,1.1976520342200994,0.046184828069806,-1.180817219275236,0.5101446509361267,-0.0041940971277654,1.7819827795028689,walking
1783088618990872600,7.34087255859375,1.2660153763502835,-0.34389307853356,-1.03614162183702,0.5327221155166626,-0.0058981901966035,1.7032543420791626,walking
1783088619000917800,7.350917724609375,1.317703185750544,-0.6461582616493106,-1.0476087722688914,0.5569438338279724,0.0100775798782706,1.5656099319458008,walking
1783088619010961700,7.360961669921875,1.5748177061498163,-0.9203894826747476,-0.9912222836583852,0.5664829611778259,0.0253729354590177,1.3667274713516235,walking
1783088619021005600,7.371005615234375,1.647259257504344,-1.045231521743536,-1.1585001735270022,0.5253480672836304,0.0663158446550369,1.142263412475586,walking
1783088619031050800,7.38105078125,1.3597531059727073,-0.7723448471948504,-1.411795720160007,0.4522084891796112,0.1458836495876312,0.990082859992981,walking
1783088619041094700,7.3910947265625,1.0200712153933942,-0.3017527035489678,-1.4954460632711648,0.3703588843345642,0.2282123416662216,0.9387738704681396,walking
1783088619051138600,7.401138671875,0.96614746363461,-0.0565818650521337,-1.4333990646809338,0.3050202429294586,0.2728330492973327,0.93581622838974,walking
1783088619061182700,7.4111826171875,1.0367458713404831,-0.1674937245763838,-1.1790601464748385,0.2886774837970733,0.254879355430603,0.92722487449646,walking
1783088619071228000,7.421227783203125,1.1841215215176344,-0.3558282848685979,-0.8235802366524935,0.3456479609012604,0.2022113800048828,0.9053852558135986,walking
1783088619081271600,7.431271484375,1.4140226024292408,-0.4906966279111802,-0.6145926183015108,0.4321900308132171,0.1515253037214279,0.8865947723388672,walking
1783088619091315700,7.441315673828125,1.6177435324236749,-0.4779153261408209,-0.4038327295809984,0.4896339476108551,0.1306364238262176,0.8906188607215881,walking
1783088619101361000,7.45136083984375,1.87501631212458,-0.4420695212557912,-0.086644264230132,0.5327715277671814,0.0872378274798393,0.8958809971809387,walking
1783088619111404500,7.461404541015625,2.140991307588666,-0.3191698484264314,0.1493617094278335,0.5814346671104431,0.0068437354639172,0.8692701458930969,walking
1783088619121448700,7.47144873046875,2.0363079671904445,-0.1424821790471672,0.2152799964934587,0.6408354043960571,-0.0580875910818576,0.8310585618019104,walking
1783088619131494000,7.481493896484375,1.7260376106649635,0.0411126393720507,0.389489731451869,0.6722069978713989,-0.1150360479950904,0.8043263554573059,walking
1783088619141537800,7.491537841796875,1.438177969520539,0.395537779444456,0.7658288894295692,0.6324113607406616,-0.1904034912586212,0.830920934677124,walking
1783088619151581700,7.501581787109375,1.1484309071943164,0.8605759422250091,1.25768535490036,0.5319925546646118,-0.3374150991439819,0.9192374348640442,walking
1783088619161627000,7.511626953125,0.945533714672923,1.2417463197514411,1.690887386828661,0.4269230961799621,-0.5762444138526917,1.0634297132492063,walking
1783088619171670800,7.5216708984375,0.7992220404654741,1.5910386269800365,2.08257725867331,0.368532121181488,-0.8928877711296082,1.2459954023361206,walking
1783088619181714700,7.531714599609375,0.6712085317537189,1.722509290408343,2.167964800840616,0.3518285155296325,-1.2086379528045654,1.4153947830200195,walking
1783088619191758600,7.541758544921875,0.44743820868209,1.6566254901342092,2.1353689376622436,0.4221037030220032,-1.4444698095321655,1.5166434049606323,walking
1783088619201803800,7.5518037109375,0.099050449077785,1.432911135033518,1.9724726238787176,0.5232534408569336,-1.5559723377227783,1.5260848999023438,walking
1783088619211847700,7.56184765625,-0.3143289842665195,1.025242918942869,1.4571914436787363,0.6171444654464722,-1.537671446800232,1.4709715843200684,walking
1783088619221891600,7.5718916015625,-0.6790928552627563,0.4379956959456205,0.8810241253614425,0.6981260776519775,-1.4006699323654177,1.3423137664794922,walking
1783088619231936800,7.581936767578125,-0.602680354450643,0.1274132047310471,0.2718424261927604,0.7470606565475464,-1.1975635290145874,1.1850131750106812,walking
