time,seconds_elapsed,accel_x,accel_y,accel_z,gyro_x,gyro_y,gyro_z,label
1783090504683801600,0.064801513671875,0.5915889054633676,-0.52664501638785,0.1299421386867761,0.0035198731347918,-0.3232519328594208,-0.2012199312448501,walking
1783090504693846500,0.074846435546875,0.7730003884941339,-0.499297429126501,0.0175952779233455,0.069204606115818,-0.3751881122589111,-0.2279732525348663,walking
1783090504703890700,0.084890625,0.7725202037617563,-0.3730405548237264,-0.1102040035158395,0.0976133942604065,-0.3656615018844604,-0.228796899318695,walking
1783090504713935600,0.094935546875,0.5664021494977176,-0.2036693459376692,-0.2597492528170347,0.0694073215126991,-0.3040388822555542,-0.2122181951999664,walking
1783090504723979800,0.104979736328125,0.3419913365654647,-0.1790998450875282,-0.2329009933799505,0.009471452794969,-0.2284156680107116,-0.1984932720661163,walking
1783090504734024700,0.115024658203125,0.306278656540811,-0.2843684380277991,-0.063203182888031,-0.0487913191318511,-0.1817887872457504,-0.2140764892101287,walking
1783090504744068600,0.125068603515625,0.3889322436995804,-0.4503530732154845,0.0388625223577022,-0.0745232254266738,-0.147795557975769,-0.2424526214599609,walking
1783090504754113800,0.13511376953125,0.3484957500234246,-0.5417702509358525,0.0140127432614564,-0.0654732659459114,-0.1104314178228378,-0.2768494784832001,walking
1783090504764157700,0.14515771484375,0.1728884232267737,-0.5662273774527012,-0.0539653989434242,-0.0581981725990772,-0.0778163895010948,-0.3011292517185211,walking
1783090504774201600,0.15520166015625,0.0613565321080386,-0.6226803554281592,-0.1474333717137575,-0.0480946712195873,-0.0234266519546508,-0.3163662552833557,walking
1783090504784246800,0.165246826171875,0.0171444654159247,-0.7178644844666123,-0.2596346865266561,-0.0230428017675876,0.0619443580508232,-0.3125490844249725,walking
1783090504794290400,0.17529052734375,-0.0937976431161165,-0.7259959146045148,-0.3542319555878639,0.0318838320672512,0.1553446054458618,-0.303957462310791,walking
1783090504804335600,0.185335693359375,-0.0926820830896496,-0.6618482904732227,-0.3931798181414604,0.0865987315773963,0.221040204167366,-0.2857798933982849,walking
1783090504814379800,0.1953798828125,0.1562557067252695,-0.5223023110084235,-0.398518256559968,0.1127515062689781,0.2415180504322052,-0.2663111090660095,walking
1783090504824424700,0.2054248046875,0.2568972243867814,-0.3675422496683895,-0.4347825791180134,0.1127026379108429,0.2290307879447937,-0.241439938545227,walking
1783090504834468600,0.215468505859375,0.1908257925860583,-0.0439512237988412,-0.4506277985036372,0.1060583293437957,0.1911465227603912,-0.1895056217908859,walking
1783090504844513500,0.225513427734375,0.1331292442902922,0.2258348543860018,-0.5548632490038872,0.1115166619420051,0.1527631878852844,-0.118847370147705,walking
1783090504854557700,0.2355576171875,0.1175586040623486,0.2143715033464133,-0.6412988389194011,0.1099792197346687,0.111893780529499,-0.0319806486368179,walking
1783090504864601600,0.2456015625,0.0499020950272679,0.1415364226296544,-0.6568471211850643,0.0947123169898986,0.0800153911113739,0.0587441176176071,walking
1783090504874646800,0.255646728515625,-0.006158230368793,0.066075231193006,-0.5714876360684633,0.085292175412178,0.0649759843945503,0.1392144560813903,walking
1783090504884690700,0.265690673828125,-0.0293278012931346,-0.0042028585173189,-0.3823147252559661,0.0954293236136436,0.0584033541381359,0.2040906846523285,walking
1783090504894735600,0.275735595703125,-0.0491490847028791,0.0829288969688117,-0.1708703614026308,0.1064675897359848,0.0393495000898838,0.2548446953296661,walking
1783090504904779800,0.28577978515625,-0.1228109716325998,0.1598737510919571,0.1149912377923726,0.1125364303588867,-0.0205487608909606,0.295767992734909,walking
1783090504914824700,0.29582470703125,-0.1315739776723086,0.3045791591465473,0.3098907095581293,0.1010845750570297,-0.1117945164442062,0.3401796519756317,walking
1783090504924868600,0.30586865234375,-0.1195354570932686,0.3296957724854349,0.4813888474702835,0.0805950909852981,-0.2146492600440979,0.3901585936546325,walking
1783090504934913500,0.31591357421875,-0.1448313725218177,0.300906461983174,0.5342231965571642,0.0684846341609954,-0.2940210700035095,0.4274172782897949,walking
1783090504944957700,0.325957763671875,-0.3151031835094094,0.1842293169304728,0.5310433974772691,0.0665035992860794,-0.3345102667808532,0.4397162497043609,walking
1783090504955001600,0.336001708984375,-0.4273622198589146,0.031281565709412,0.5208399833709001,0.0645882487297058,-0.3319954574108124,0.4358837008476257,walking
1783090504965046500,0.346046630859375,-0.4955297471560537,-0.0731524761028587,0.5016477916449308,0.0549164377152919,-0.3025715947151184,0.4252923727035522,walking
1783090504975090700,0.356090576171875,-0.5968778056517243,-0.1405406895905733,0.44411388656497,0.0474044606089592,-0.2424203902482986,0.4117222428321838,walking
1783090504985135600,0.366135498046875,-0.8184750224679708,-0.1731909133046865,0.2804734764158725,0.0473064146935939,-0.1856395304203033,0.4008065164089203,walking
1783090504995179800,0.3761796875,-0.9823505565471946,-0.2336103106930852,0.1840086599171161,0.0667339116334915,-0.1697383373975753,0.3881205320358276,walking
1783090505005224700,0.386224609375,-0.9325523602858186,-0.3192702400609851,0.0977852514475584,0.1090509593486785,-0.1966673880815506,0.3720210492610931,walking
1783090505015268600,0.3962685546875,-0.7656348281621933,-0.4073166261740029,0.0135784434974193,0.1554988771677017,-0.2465824782848358,0.3450743854045868,walking
1783090505025313500,0.4063134765625,-0.6903771964736283,-0.5673766936182976,-0.0618336481004953,0.1949534267187118,-0.3131723999977112,0.304733395576477,walking
1783090505035357700,0.416357666015625,-0.7517258375361562,-0.7722947244428098,-0.0261328046441078,0.2107955068349838,-0.3472304940223694,0.2566918134689331,walking
1783090505045401600,0.426401611328125,-0.9002664398394524,-0.9870194251410662,0.0218424139738082,0.2158771008253097,-0.3350115716457367,0.2106029838323593,walking
1783090505055446500,0.436446533203125,-1.15635965436697,-1.0744067628234624,0.0973170494139194,0.2188707590103149,-0.3173715770244598,0.1829812079668045,walking
1783090505065490700,0.44649072265625,-1.1798356608919798,-1.0021116342023015,0.2661404151588678,0.2345813065767288,-0.2797490656375885,0.1659938395023346,walking
1783090505075536000,0.456535888671875,-1.0963282333828508,-0.9319495720870792,0.275724236062169,0.2622004151344299,-0.227934330701828,0.1438906639814376,walking
1783090505085579500,0.46657958984375,-1.2164001354403793,-0.8125820189066231,0.1894178254842758,0.2853412330150604,-0.1773546636104583,0.1241857483983039,walking
1783090505095624700,0.476624755859375,-1.156961565782875,-0.6776826962038874,0.1483604234308004,0.2834048271179199,-0.1514090895652771,0.1313371360301971,walking
1783090505105668600,0.486668701171875,-0.7504379896827041,-0.6202146959669887,0.2475163787096738,0.2582922875881195,-0.1514192074537277,0.1532296538352966,walking
1783090505115713500,0.496713623046875,-0.626397622385621,-0.6390938762210309,0.1681792226225137,0.2229638695716858,-0.1331880092620849,0.1715338230133056,walking
1783090505125757700,0.5067578125,-0.8409067806370556,-0.6172109841063619,-0.1870873367100954,0.1955645084381103,-0.0884405449032783,0.2085500508546829,walking
1783090505135801600,0.516801513671875,-0.6883193871609866,-0.6437723894260823,-0.224688460829854,0.1866210848093032,-0.0584261827170848,0.252343088388443,walking
1783090505145846500,0.526846435546875,-0.5177836645402014,-0.6732884067676961,-0.0662386050611734,0.2003834098577499,-0.0639481991529464,0.2848005890846252,walking
1783090505155890700,0.536890625,-0.4239226007990538,-0.5559139271005987,0.1657762531340122,0.2381209284067154,-0.0567613877356052,0.3067242503166199,walking
1783090505165935900,0.546935791015625,-0.3299668445117771,-0.4558412953682244,0.3173275815606117,0.2656792402267456,-0.0144583517685532,0.3312236368656158,walking
1783090505175979500,0.5569794921875,-0.2767627853296697,-0.3394454514749348,0.3887485576957464,0.2560716271400451,0.0134236132726073,0.3619506359100342,walking
1783090505186024700,0.567024658203125,-0.1479967046849429,-0.2868152466580271,0.4213736469686031,0.2458708584308624,0.0437908135354518,0.4173265695571899,walking
1783090505196068900,0.57706884765625,-0.2914776855111122,-0.2821842258565127,0.2421674188971519,0.2485404312610626,0.0868237614631652,0.4877991378307342,walking
1783090505206113500,0.587113525390625,-0.5094567118301987,-0.3438689670056104,0.0718722270339727,0.2519730627536773,0.1250593066215515,0.5459254384040833,walking
1783090505216157700,0.59715771484375,-0.4195813567243516,-0.4007129901252687,0.0284650469839572,0.249629721045494,0.1554283946752548,0.5866113901138306,walking
1783090505226201900,0.607201904296875,-0.201929808793962,-0.3992576767504215,0.0572866523206233,0.2460702806711197,0.1658259332180023,0.6102612018585205,walking
1783090505236246500,0.61724658203125,-0.1785160538502037,-0.4113917666584253,0.0802396578848362,0.2328820377588272,0.1692227870225906,0.6167678833007812,walking
1783090505246290700,0.627290771484375,-0.3733449445977806,-0.4377414289236068,0.1099836387634277,0.2017472982406616,0.1597345471382141,0.6184209585189819,walking
1783090505256335600,0.637335693359375,-0.505744705569744,-0.4353108407758176,0.1934662240922451,0.1597228795289993,0.1415938884019851,0.6106823682785034,walking
1783090505266379500,0.647379638671875,-0.4930239018149673,-0.4739727259948849,0.2761807476580142,0.1189597249031066,0.1300215423107147,0.5843701362609863,walking
1783090505276424700,0.6574248046875,-0.5121396673038602,-0.5872543833903968,0.1869523121535778,0.0502112880349159,0.1782306134700775,0.5175466537475586,walking
1783090505286468900,0.66746875,-0.5065481309071183,-0.6681463677041232,0.0338426483690738,0.0125322304666042,0.2062354236841201,0.4412284791469574,walking
1783090505296513500,0.677513427734375,-0.5601394358411431,-0.5238290821842849,0.281091900575161,0.000847345450893,0.2521440684795379,0.4024661481380462,walking
1783090505306557700,0.6875576171875,-0.6186860250949859,-0.3854496622808277,0.1302829149484634,-0.0265682227909564,0.2434935718774795,0.3938989639282226,walking
1783090505316601900,0.697601806640625,-0.4711749119699001,-0.4731067568153143,0.0824012198328971,-0.033470869064331,0.1864915490150451,0.4027872681617737,walking
1783090505326646500,0.707646484375,-0.3891770122408867,-0.5772947149120271,0.1380161395490169,0.0060363849624991,0.0888659581542015,0.397905945777893,walking
1783090505336690700,0.717690673828125,-0.3335485023908316,-0.671212769537419,0.1836573622614145,0.0847580879926681,-0.0300995763391256,0.3777631223201751,walking
1783090505346735600,0.727735595703125,-0.3104058194734156,-0.7017801956281066,0.1931488287061452,0.1536998897790908,-0.1540062427520752,0.3527402579784393,walking
1783090505356779500,0.737779541015625,-0.3074986998550593,-0.8142384078115225,0.4068687362760305,0.1996005326509475,-0.2823250591754913,0.32254558801651,walking
1783090505366824700,0.74782470703125,-0.3571567569933832,-0.9636429334677756,0.6895704101353883,0.2154147922992706,-0.3858287632465362,0.2893745005130768,walking
1783090505376868600,0.75786865234375,-0.5336337062314153,-1.114510809674859,0.8578343884319066,0.2073177248239517,-0.4544336795806885,0.2528732120990753,walking
1783090505386912500,0.76791259765625,-0.6690044458381831,-1.1852889578618109,1.0185065964251756,0.171403020620346,-0.4915232062339782,0.2165082544088363,walking
1783090505396957700,0.777957763671875,-0.7246978376179933,-1.1431710869699716,1.1572089646726846,0.1196428909897804,-0.5069050788879395,0.1848858743906021,walking
1783090505407001900,0.788001953125,-0.7866261782646179,-1.092243594417721,1.217449790623784,0.0763942673802375,-0.5264708995819092,0.1761220097541809,walking
1783090505417046500,0.798046630859375,-0.8568396783061325,-1.0759040156438946,1.223110885125399,0.0580631904304027,-0.5516811609268188,0.1890593767166137,walking
1783090505427090700,0.808090576171875,-0.8280361931480467,-1.0904762924842537,1.134136132121086,0.064277283847332,-0.5772400498390198,0.2117507457733154,walking
1783090505437135600,0.818135498046875,-0.7304124158725142,-1.1247972258895635,1.058624087280035,0.1051461547613143,-0.605033814907074,0.2610466480255127,walking
1783090505447179500,0.828179443359375,-0.6944179962970316,-1.133720975448936,0.9996738856613636,0.1895696520805359,-0.6290804743766785,0.3239441514015198,walking
1783090505457224700,0.838224609375,-0.7052770978331565,-1.001656437780708,0.8104816856265068,0.3179689049720764,-0.623138964176178,0.3727069199085235,walking
1783090505467268600,0.8482685546875,-0.6836503724366426,-0.4585076650332659,0.4255611617863178,0.4589823484420776,-0.5528370141983032,0.4274815618991852,walking
1783090505477312500,0.8583125,-0.7531865577384829,0.133324986058101,-0.0287760126292705,0.5872377753257751,-0.422096848487854,0.5170753002166748,walking
1783090505487357700,0.868357666015625,-0.9969549820914864,0.5599593300338834,-0.6780196730732917,0.684411346912384,-0.1807691901922226,0.6225725412368774,walking
1783090505497401600,0.878401611328125,-0.9976713136672972,0.8775472430311143,-1.5078186381101608,0.7313346266746521,0.1343900859355926,0.6905760765075684,walking
1783090505507446800,0.88844677734375,-0.5940513500541448,0.7818566257752477,-2.111089067408442,0.7621895670890808,0.3833372592926025,0.7017792463302612,walking
1783090505517490700,0.89849072265625,0.1106228134498,0.5030878343854099,-2.306156881478429,0.7753719687461853,0.5178130865097046,0.6435332298278809,walking
1783090505527535600,0.90853564453125,0.7141998244792223,0.351022418956831,-2.1141268276691436,0.7555755376815796,0.5180710554122925,0.5406528115272522,walking
1783090505537579800,0.918579833984375,0.7083681957162916,0.5924192188076675,-1.699870903751254,0.6765206456184387,0.4349063336849212,0.4225070476531982,walking
1783090505547623700,0.928623779296875,0.1533256446227431,0.6476987690895796,-1.182279693043232,0.4916752278804779,0.3198657631874084,0.2703315019607544,walking
1783090505557668600,0.938668701171875,-0.2583336869306862,0.0415208548467606,-0.5127870252966881,0.247598648071289,0.1887069344520568,0.0996934548020362,walking
1783090505567712500,0.94871240234375,-0.8160399042755365,-0.7093960774593054,0.1229670389771461,0.0543209165334701,0.0826846063137054,-0.0772380903363227,walking
1783090505577757700,0.9587578125,-1.389337073983997,-1.0283380354139953,0.239998258164525,-0.020061170682311,0.0043045761995017,-0.2488465905189514,walking
1783090505587801600,0.968801513671875,-1.488507642310113,-0.9500552106853574,0.1144102230340242,0.0038332042749971,-0.0653843507170677,-0.3950844705104828,walking
1783090505597846800,0.9788466796875,-1.0618165997110307,-0.6855917157627641,0.0418657958269119,0.0676055252552032,-0.1279750317335128,-0.514359176158905,walking
1783090505607890700,0.988890625,-0.7636424853011965,-0.4275797350671142,-0.2335427984148264,0.1383695751428604,-0.1614040583372116,-0.6080830693244934,walking
1783090505617935600,0.998935546875,-0.6967670436412096,-0.2202414182931184,-0.6002122107714414,0.2005277574062347,-0.1223413571715354,-0.6602626442909241,walking
1783090505627979800,1.008979736328125,-0.6469064496681094,0.0033279753789305,-0.8929302517324685,0.2168211936950683,-0.0621611326932907,-0.6700263619422913,walking
1783090505638023700,1.019023681640625,-0.3534199085526168,0.134060752986744,-0.7528343832999468,0.1875293552875518,-0.0344307050108909,-0.6388857960700989,walking
1783090505648068600,1.029068603515625,0.0775526107579469,0.4075067419186234,-0.4628133263379335,0.1354359090328216,-0.0341607481241226,-0.5811122059822083,walking
1783090505658112800,1.03911279296875,0.3421234385125339,0.7448463802207261,-0.3031283758163452,0.123302012681961,-0.074192851781845,-0.4943248331546783,walking
1783090505668157700,1.04915771484375,0.4202973960392177,1.0347129772733896,-0.1997317142277956,0.1832942813634872,-0.101980023086071,-0.3877204656600952,walking
1783090505678201600,1.05920166015625,0.5791761447444558,1.177440144057572,0.0206628488004207,0.2585310041904449,-0.1525630354881286,-0.2550463080406189,walking
1783090505688246800,1.069246826171875,0.8502695061355828,1.2303301688544452,0.4936071085304021,0.2869192361831665,-0.2251384407281875,-0.1062286123633384,walking
1783090505698291000,1.079291015625,1.1106214010208844,1.1368006751552224,0.7114069788902998,0.2572353780269623,-0.2785215079784393,0.0257429983466863,walking
1783090505708336000,1.089336181640625,1.2884759222224351,0.9496422459702938,0.7285480833053588,0.1898859739303589,-0.3248950242996216,0.1404750347137451,walking
1783090505718380000,1.099380126953125,1.607368561142683,0.8004745247446,0.8224082702636718,0.1257730424404144,-0.3532750010490417,0.2453164905309677,walking
1783090505728424200,1.109424072265625,1.7541960759177804,0.6745392836116254,0.8330489067435264,0.0801091492176055,-0.368962824344635,0.3379735350608825,walking
1783090505738469000,1.11946923828125,1.7441019674047826,0.5716041020549834,0.8970452858358621,0.0600518211722373,-0.3496786057949066,0.417466789484024,walking
1783090505748513000,1.129512939453125,1.5537521217674015,0.5660190319316462,0.9149468532294034,0.060486365109682,-0.3015617132186889,0.4850924015045166,walking
1783090505758558000,1.139557861328125,1.285395784124732,0.5840601539263501,0.8558119426935911,0.0637724325060844,-0.2462145835161209,0.5463699102401733,walking
1783090505768602000,1.14960205078125,1.1083341668665407,0.5796701022738591,0.8433318158268928,0.0564026199281215,-0.1888817697763443,0.6009823083877563,walking
1783090505778647000,1.15964697265625,1.027491866913438,0.5310076685767621,0.8027975608646869,0.0397954136133194,-0.1333431452512741,0.6443620920181274,walking
1783090505788691000,1.16969091796875,0.973271908687055,0.4964962175680324,0.5952537115812301,0.0267990119755268,-0.0741215199232101,0.6826525926589966,walking
1783090505798735000,1.179735107421875,0.9776385794639588,0.4870104867443442,0.2550947050094604,0.031704019755125,-0.0158417038619518,0.7057430148124695,walking
1783090505808780000,1.189780029296875,0.9693404144570232,0.4519907208872958,-0.1439595581233501,0.0431870371103286,0.0524023324251174,0.7085142731666565,walking
1783090505818824000,1.199823974609375,0.8996665742501616,0.3916661256428808,-0.62026364967525,0.0409617014229297,0.1137591674923896,0.6947316527366638,walking
1783090505828869000,1.209869140625,0.8677505100294947,0.2616990351779386,-0.726761199888587,0.023245770484209,0.125728502869606,0.674302339553833,walking
1783090505838913000,1.2199130859375,0.779371092569828,0.1073517193572595,-0.5577081170409918,0.0034560868516564,0.1078885197639465,0.6473202109336853,walking
1783090505848958000,1.2299580078125,0.6087149584397673,0.0373235492873936,-0.4305044634073972,-0.0116631593555212,0.0855845212936401,0.6163519024848938,walking
1783090505859002000,1.240002197265625,0.491001894468069,-0.1051134389111772,-0.2907663223713636,-0.0014992046635597,0.0574788488447666,0.580697774887085,walking
1783090505869047000,1.250047119140625,0.6481000433668493,-0.2660958088321611,-0.0728928022533655,0.0540657564997673,-0.0009616371244192,0.5319896936416626,walking
1783090505879091000,1.260091064453125,0.850839999499917,-0.3881888049211353,0.0149900638610124,0.1383942067623138,-0.0350181385874748,0.4593610167503357,walking
1783090505889135000,1.270135009765625,0.9242387054488064,-0.5611283372806385,-0.0325216288983821,0.1955634951591491,-0.0470838584005832,0.3710974752902984,walking
1783090505899180000,1.280179931640625,0.965090355797112,-0.6959200714230537,0.1160287641465663,0.2005742341279983,-0.0433362573385238,0.2985697388648987,walking
1783090505909224000,1.290223876953125,1.0658604682743549,-0.7940963680148124,0.2190460710287094,0.1727775931358337,-0.0203567501157522,0.2363854199647903,walking
1783090505919269000,1.30026904296875,1.1255883762672545,-0.7917549194552004,0.213539290305972,0.1325875669717788,0.0167581290006637,0.1896615922451019,walking
1783090505929313000,1.31031298828125,1.0476663476750254,-0.6452279950618743,0.02368541149199,0.0826632976531982,0.0521912239491939,0.1612524539232254,walking
1783090505939358000,1.32035791015625,1.0840993047982457,-0.4085456930449232,-0.1385199974179267,0.0324464663863182,0.0803709253668785,0.1749027520418167,walking
1783090505949402000,1.330402099609375,1.131347962707281,-0.2368764728821814,-0.2558633512943983,-0.0099547021090984,0.1064710244536399,0.2198883593082428,walking
1783090505959446000,1.340446044921875,0.9989990551397204,-0.0358408729815855,-0.2983142535328865,-0.0430524684488773,0.1294948458671569,0.2896797060966491,walking
1783090505969491000,1.350490966796875,0.7571306191891432,0.1568736559605225,-0.2890191864430904,-0.0483116656541824,0.1215086728334426,0.3749921023845672,walking
1783090505979535000,1.36053515625,0.5671151200726628,0.276742801987566,-0.1761000787496566,-0.0349465906620025,0.1363653838634491,0.4690397679805755,walking
1783090505989580000,1.370580078125,0.4800900398313998,0.3128586925182491,-0.0159539404571056,-0.0090320147573947,0.1811680048704147,0.5708147287368774,walking
1783090505999624000,1.3806240234375,0.4644488185852766,0.0948692909356206,0.2197171021580696,0.0274564865976572,0.2457645684480667,0.6832544207572937,walking
1783090506009669000,1.390669189453125,0.3928790816292166,-0.0882912277195602,0.3510328672856092,0.0578380301594734,0.2904666364192962,0.7725457549095154,walking
1783090506019713000,1.400713134765625,0.2252507708877325,-0.0972668535966426,0.4670815051764249,0.0688387528061866,0.3139546513557434,0.8234299421310425,walking
1783090506029758000,1.410758056640625,0.1687016390614211,-0.1088890484597533,0.5197264691710471,0.027741465717554,0.3331798017024994,0.8219642043113708,walking
1783090506039802000,1.420802001953125,0.1957565269865095,-0.1511009543105959,0.4573655823260545,-0.0679051652550697,0.3621789813041687,0.7880115509033203,walking
1783090506049846000,1.430845947265625,0.2936914160378277,-0.267377409607917,0.3264741800904274,-0.2119064331054687,0.4282377660274505,0.7401866912841797,walking
1783090506059891000,1.440890869140625,0.5649341227717697,-0.5052637901850044,0.1357972944557666,-0.3921220302581787,0.4991835951805115,0.7068516612052917,walking
1783090506069935000,1.45093505859375,0.6602041765280068,-0.7355011903788894,0.0220429049819707,-0.5548631548881531,0.5618478655815125,0.688601553440094,walking
1783090506079980000,1.46097998046875,0.594985416033864,-0.9523545006036758,-0.1595721377968788,-0.6219327449798584,0.5736810564994812,0.6967359185218811,walking
1783090506090024000,1.47102392578125,0.4786540156789123,-0.9870770005472004,-0.3656915072351694,-0.5322552919387817,0.5597857236862183,0.7174196243286133,walking
1783090506100069000,1.481069091796875,0.4361062289372086,-0.8268590391274541,-0.5062497324824333,-0.349602460861206,0.5213597416877747,0.7271801233291626,walking
1783090506110113000,1.491113037109375,0.4146320637539029,-0.6095102004706859,-0.5034329214960337,-0.1829563230276107,0.4757193326950073,0.703775942325592,walking
1783090506120157000,1.501156982421875,0.3447330364890396,-0.5853436543982475,-0.4198918839782476,-0.1049046739935875,0.4420242309570312,0.6250006556510925,walking
1783090506130202000,1.5112021484375,0.4553256009310483,-0.7401083188481629,-0.2401987491726875,-0.1226771920919418,0.402458518743515,0.5144537091255188,walking
1783090506140246300,1.521246337890625,0.3796775086201727,-0.8119725087061523,-0.0100046766638755,-0.1925004869699478,0.3730931580066681,0.4010288417339325,walking
1783090506150291000,1.531291015625,0.2179135598674416,-0.8463785631116479,0.1202168634861707,-0.2541880309581756,0.3440552949905395,0.3092696666717529,walking
1783090506160335000,1.541335205078125,0.1407177997231483,-0.9523488015152514,0.2294979069381952,-0.272500991821289,0.2816190719604492,0.2329165786504745,walking
1783090506170380000,1.551380126953125,0.0753179835736751,-1.0669260516792536,0.2498854459285736,-0.2499998658895492,0.1776689887046814,0.1685553640127182,walking
1783090506180424000,1.561423828125,-0.0158778064809739,-1.1321953733168542,0.1279442428678274,-0.2027647197246551,0.0756731107831001,0.1218664273619651,walking
1783090506190469000,1.57146923828125,-0.1394935186251998,-1.136196864043176,-0.0420300464779138,-0.1497457474470138,-0.0249953083693981,0.107191115617752,walking
1783090506200513000,1.581512939453125,-0.1700046844840049,-0.992945015797764,-0.0025859248399734,-0.0996801853179931,-0.1190965101122856,0.1158695518970489,walking
1783090506210557000,1.591556884765625,-0.2466286360897123,-0.860558552698791,-0.0051736032456159,-0.061218362301588,-0.188047394156456,0.1313787102699279,walking
1783090506220602000,1.60160205078125,-0.4245408788278699,-0.7189005495160817,-0.1673188064008951,-0.0347441472113132,-0.2326553463935852,0.1729091107845306,walking
1783090506230646000,1.61164599609375,-0.3281485430434346,-0.617371143104136,-0.183691849052906,-0.0026626030448824,-0.2385650277137756,0.2237157970666885,walking
1783090506240691000,1.62169091796875,-0.1207883797638118,-0.5556256116785109,-0.1456879893511533,0.0302660502493381,-0.2007409483194351,0.2741283774375915,walking
1783090506250735000,1.631735107421875,-0.0297732069730758,-0.615590835558623,-0.1303770229727029,0.0559251606464386,-0.1330316215753555,0.3250195384025574,walking
1783090506260780000,1.641780029296875,0.0739155694298446,-0.8214879405483603,-0.1012000283271074,0.0692849084734916,-0.0849338769912719,0.3595154583454132,walking
1783090506270824000,1.651823974609375,0.2401487725511193,-0.8810876921169459,-0.1003010336607694,0.0711503773927688,-0.0321532189846038,0.3872105479240417,walking
1783090506280868000,1.6618681640625,0.2810761184841394,-0.8522576112128794,-0.2057178029000759,0.0539213195443153,0.0090051367878913,0.3943512737751007,walking
1783090506290913000,1.6719130859375,0.4248208648130297,-0.7253777827061713,-0.2127519393205642,0.0163107588887214,0.0126502513885498,0.39947110414505,walking
1783090506300957000,1.68195703125,0.7046268172308802,-0.4318688836283981,-0.2090150908797979,-0.0193662792444229,-0.0122732082381844,0.4014857709407806,walking
1783090506311002000,1.692002197265625,0.6543199407950043,-0.2773516911335289,-0.2282458610504865,-0.0472060963511467,-0.0676052197813987,0.3774471282958984,walking
1783090506321046000,1.7020458984375,0.5516659142673015,-0.4981451903514564,-0.1039659859091043,-0.0674043074250221,-0.1718291044235229,0.3112635910511017,walking
1783090506331091000,1.712091064453125,0.4742370760194957,-0.8626787597231567,0.0116109428167343,-0.0633556321263313,-0.3037588894367218,0.2203213423490524,walking
1783090506341135000,1.722135009765625,0.4408284351535141,-0.9956355700559912,-0.0261041630715131,-0.0344547443091869,-0.4323693215847015,0.162331536412239,walking
1783090506351180000,1.732179931640625,0.5206685723267496,-0.9093893652327358,-0.041039281874895,0.0031836524140089,-0.5331601500511169,0.137499988079071,walking
1783090506361224000,1.742223876953125,0.5694733736366033,-0.7786005465887487,-0.0758943221569061,0.0329364873468875,-0.5951979160308838,0.1534163653850555,walking
1783090506371268000,1.75226806640625,0.657385611975938,-0.5854128471769392,-0.126602180609107,0.0531288869678974,-0.6441352367401123,0.2089073807001114,walking
1783090506381313000,1.76231298828125,0.7898949708022177,-0.3569584579423069,-0.0687064564794301,0.0626209303736686,-0.6801696419715881,0.2925689816474914,walking
1783090506391357000,1.77235693359375,0.8801884051896631,-0.1617781234085559,0.0318868381261825,0.0686699226498603,-0.6800333857536316,0.3890491127967834,walking
1783090506401402000,1.782402099609375,0.9775117382138968,-0.0329005452133715,0.1107201363444328,0.0719970092177391,-0.6443526148796082,0.4905602931976318,walking
1783090506411446000,1.792446044921875,1.0257381551139055,0.0656251493379473,0.2335737780749797,0.0711776614189148,-0.5794651508331299,0.5907120108604431,walking
1783090506421491200,1.8024912109375,1.0656582237005232,0.0576480329789221,0.3837129016160964,0.0674636214971542,-0.4990424215793609,0.6768237352371216,walking
1783090506431535000,1.81253515625,1.042932451020926,0.010872983931005,0.5090191971957684,0.0548647344112396,-0.4122979640960693,0.7356511354446411,walking
1783090506441579000,1.8225791015625,1.0527474503315986,-0.0682351857058703,0.5414040479719638,0.0381560623645782,-0.299759179353714,0.7776914834976196,walking
1783090506451624200,1.832624267578125,1.042284508506209,-0.1361143975809216,0.4358534232199191,0.0241959616541862,-0.1636442095041275,0.8176264762878418,walking
1783090506461668000,1.842668212890625,0.9466567273534834,-0.2639884978219866,0.2303290970653295,0.0425451435148716,0.0167079828679561,0.8447126746177673,walking
1783090506471713000,1.852713134765625,0.7522961847700178,-0.4351346074260771,-0.3275765883743762,0.0900563448667526,0.2430557161569595,0.8633915781974792,walking
1783090506481757000,1.8627568359375,0.6079349139779806,-0.6439942154832184,-0.9572001870691776,0.1537983119487762,0.4944488108158111,0.8967018723487854,walking
1783090506491801900,1.8728017578125,0.5746444926641882,-0.8440462477065622,-1.5131939014077185,0.2259109169244766,0.7443475127220154,0.9362483024597168,walking
1783090506501846000,1.882845947265625,0.6714641139499843,-0.886626621543616,-1.9005209018677471,0.2955038547515869,0.9493395686149596,0.9736867547035216,walking
1783090506511891200,1.89289111328125,0.7386866154819727,-0.774442842387408,-2.0727385862261056,0.3439238369464874,1.072575330734253,1.0160311460494995,walking
1783090506521935000,1.90293505859375,0.7565710856102407,-0.650570963525027,-1.928009797295928,0.3569227457046509,1.0731031894683838,1.0584204196929932,walking
1783090506531979000,1.91297900390625,0.7803828999608755,-0.5231783631905913,-1.5211708716362713,0.3390347063541412,0.9760022163391112,1.0946561098098757,walking
1783090506542024200,1.923024169921875,0.6721043115496635,-0.4365091106496751,-1.1098936712682246,0.3165134191513061,0.8095138669013977,1.129140853881836,walking
1783090506552068000,1.933068115234375,0.4883035952948033,-0.2881935492739081,-0.7096604274839162,0.3092252314090729,0.5899857878684998,1.1764113903045654,walking
1783090506562113000,1.943113037109375,0.3718196347266435,-0.1317434890203178,-0.3156961809664964,0.3287435173988342,0.325198620557785,1.233700156211853,walking
1783090506572157200,1.9531572265625,0.3774263686925173,0.0692825028017163,0.1260042147159576,0.3746876120567322,0.0437788292765617,1.302687644958496,walking
1783090506582201900,1.963201904296875,0.3966489555567503,0.3389206969484686,0.5958049157232046,0.4334973990917206,-0.2297568470239639,1.3860629796981812,walking
1783090506592246000,1.97324609375,0.3728549691237509,0.6118950497806072,1.0329811119794845,0.4835925698280334,-0.4821479320526123,1.476405143737793,walking
1783090506602290200,1.983290283203125,0.3241866536751389,0.7936287505030631,1.4303373390227556,0.5020498633384705,-0.7101480960845947,1.5506079196929932,walking
1783090506612334800,1.9933349609375,0.2260118183881044,0.8540265205815434,1.527861309185624,0.4918859899044037,-0.8777934908866882,1.5791476964950562,walking
1783090506622379000,2.00337890625,-0.0088709964588284,0.8286074171647428,1.341921973466873,0.4585599899291992,-0.9500778317451476,1.577282428741455,walking
1783090506632424200,2.013424072265625,-0.3405101580969989,0.7073335919715463,0.9885486805349588,0.403693675994873,-0.9176006317138672,1.553104043006897,walking
1783090506642468000,2.023468017578125,-0.5398761077523231,0.570475536416471,0.552118334209919,0.3484472036361694,-0.7961357235908508,1.494696855545044,walking
1783090506652513000,2.033512939453125,-0.6360542162641882,0.3561037408091128,0.0141004215449094,0.320212185382843,-0.6125405430793762,1.4106886386871338,walking
1783090506662557200,2.04355712890625,-0.5559527978062629,0.2174466730080544,-0.5486836835861205,0.3385019600391388,-0.4024975299835205,1.3111554384231567,walking
1783090506672601000,2.05360107421875,-0.4452507816404104,0.0402647903710603,-1.1391051527053118,0.3922070860862732,-0.1744949668645858,1.199984788894653,walking
1783090506682646000,2.06364599609375,-0.3375264661110937,-0.1814184242282062,-1.7082997094005343,0.462344616651535,0.0304291434586048,1.1003375053405762,walking
1783090506692690200,2.073690185546875,-0.1117291672565043,-0.3537365732863545,-2.0044179141938687,0.5252556800842285,0.1719269156455993,1.0059162378311155,walking
1783090506702735000,2.083735107421875,0.1808919892013072,-0.5462856094684452,-1.8983043948620557,0.5694913268089294,0.2528673112392425,0.9194223880767822,walking
1783090506712779000,2.093779052734375,0.3589532850213349,-0.5711245749097317,-1.4505939451098442,0.5805062055587769,0.2605689764022827,0.8436810374259949,walking
1783090506722824200,2.10382421875,0.4485140212200582,-0.4757645778477191,-0.8122177156388759,0.5561007261276245,0.2023613154888153,0.7973353862762451,walking
1783090506732868000,2.1138681640625,0.4803370003297925,-0.2295143466163426,-0.1863981854021549,0.5001750588417053,0.0952292904257774,0.7828657627105713,walking
1783090506742913000,2.1239130859375,0.4056945779301226,0.0785291276399046,0.3316214798510074,0.428356260061264,-0.0314176008105278,0.7915722131729126,walking
1783090506752957200,2.133957275390625,0.2624291395507753,0.2684047798942774,0.6181248840808868,0.3662815690040588,-0.1656326353549957,0.826609194278717,walking
1783090506763001000,2.1440009765625,-0.0139360247634351,0.466510719551146,0.7591641708433627,0.3239618241786957,-0.2847459614276886,0.8865819573402405,walking
1783090506773046000,2.1540458984375,-0.352993353703618,0.5783467081829905,0.7623685198426247,0.310475617647171,-0.3822467029094696,0.9676133394241332,walking
1783090506783090200,2.164090087890625,-0.495114298222959,0.6371374814562499,0.7088339135318994,0.3257818818092346,-0.4915220439434051,1.0524544715881348,walking
1783090506793135000,2.174135009765625,-0.5561730164282024,0.5988132306937128,0.6645628101289272,0.3549497127532959,-0.5934953689575195,1.1208425760269165,walking
1783090506803179000,2.184178955078125,-0.5297818531088531,0.4583301895745098,0.6064478902906179,0.3709779679775238,-0.6775822639465332,1.1596864461898804,walking
1783090506813224200,2.19422412109375,-0.3089119276538491,0.2378713291384279,0.5198322676330804,0.3416201174259186,-0.7008237242698669,1.1657426357269287,walking
1783090506823268000,2.20426806640625,-0.0821744253396987,-0.1148305673379451,0.5180412925630807,0.2860814929008484,-0.757914125919342,1.141793131828308,walking
1783090506833312000,2.21431201171875,0.2226798974864184,-0.26564211024791,0.4633171842068433,0.2525928616523742,-0.765605092048645,1.1111875772476196,walking
1783090506843357200,2.224357177734375,0.2942730153180659,-0.3313189897730946,0.2020493435204029,0.2515526413917541,-0.7301698327064514,1.0759763717651367,walking
1783090506853401000,2.234401123046875,0.1777947538383305,-0.4162319732312113,0.0330681568652391,0.2790721356868744,-0.6775186657905579,1.057422757148743,walking
1783090506863446300,2.2444462890625,0.4227919893339276,-0.4077792021844535,0.1567483125478029,0.3038962781429291,-0.6078205108642578,1.041192889213562,walking
1783090506873490200,2.254490234375,0.4888260117337107,-0.5057161370623856,0.2521311790287494,0.3073159158229828,-0.5229200124740601,1.0008463859558103,walking
1783090506883535000,2.26453515625,0.3671028353378176,-0.5617532277133316,0.3157522950679063,0.2797122597694397,-0.4359246790409088,0.9827904105186462,walking
1783090506893579000,2.2745791015625,0.3500912025213241,-0.4679967203252017,0.3985965824931859,0.2444237619638443,-0.344451367855072,0.9996278882026672,walking
1783090506903623200,2.284623046875,0.2550447283878922,-0.5039802531804889,0.1982756702005863,0.2348704785108566,-0.2799610793590545,1.0362300872802734,walking
1783090506913668000,2.294668212890625,0.3989375048853457,-0.5706078575592488,0.0501964017987251,0.2633528411388397,-0.2607589662075043,1.0991710424423218,walking
1783090506923712000,2.3047119140625,0.8334132100112736,-0.4787399403966963,0.1664513759166002,0.3190557658672333,-0.2713721990585327,1.168945550918579,walking
1783090506933757200,2.314757080078125,1.3723648963950574,-0.4573072762675583,0.2762865461200475,0.3673263490200043,-0.2624427378177643,1.1899744272232056,walking
1783090506943801000,2.324801025390625,1.2061902915932237,-0.5788190749350934,0.1369236681371927,0.3704326450824737,-0.2054513692855835,1.185173511505127,walking
1783090506953846300,2.33484619140625,0.6731649265184998,-0.5823088167469949,0.1519780294060707,0.3456210792064667,-0.137378916144371,1.1919785737991333,walking
1783090506963890200,2.34489013671875,0.4125111260771751,-0.6307802213840186,0.546747162565589,0.31738942861557,-0.1104546263813972,1.1873350143432615,walking
1783090506973935000,2.35493505859375,-0.0035357729107141,-0.6203785082265735,0.8566103995949029,0.296087771654129,-0.1485351920127868,1.1681145429611206,walking
1783090506983979300,2.364979248046875,-0.123381172735989,-0.6648256988488137,1.1197446186751128,0.2840689122676849,-0.2444779723882675,1.149403691291809,walking
1783090506994023200,2.375023193359375,0.0353811099827289,-0.7067339455779641,1.2680635410517451,0.2589659690856933,-0.3780668675899505,1.1278254985809326,walking
1783090507004068000,2.385068115234375,0.2785015918210148,-0.6876026902589947,1.1988339374810455,0.2158251404762268,-0.5297120213508606,1.104578733444214,walking
1783090507014112300,2.3951123046875,0.5072165316879749,-0.7647616255242377,0.9946738854169844,0.1663171201944351,-0.6526374220848083,1.0812126398086548,walking
1783090507024157000,2.405156982421875,0.5890624557256698,-0.9325093979269266,0.6537713670015335,0.1282557547092437,-0.7262216210365295,1.070791244506836,walking
1783090507034201000,2.415201171875,0.4880886373698711,-0.9741389007799328,0.2330880403846502,0.1231873780488967,-0.7593613862991333,1.0871418714523315,walking
1783090507044246300,2.425246337890625,0.4306950175434351,-0.7515031346961856,-0.1947404818117618,0.1914394050836563,-0.7390031218528748,1.146959662437439,walking
1783090507054290200,2.435290283203125,0.4889817868173122,-0.4139137594167142,-0.666836600279808,0.3258727192878723,-0.6097780466079712,1.2191588878631592,walking
1783090507064334000,2.445333984375,0.5708718422576785,-0.1315915133289992,-1.0962649588882922,0.4663933515548706,-0.4336272180080414,1.2744603157043457,walking
1783090507074379300,2.455379150390625,0.4875485391438007,-0.0743185242075473,-1.2465145570665597,0.5473665595054626,-0.2775161862373352,1.304707407951355,walking
1783090507084423200,2.465423095703125,0.1581257383808493,-0.1751993305176496,-1.173849718350172,0.5547555088996887,-0.1455655843019485,1.3204679489135742,walking
1783090507094468000,2.475468017578125,-0.2171075041815638,-0.3407817415799945,-0.9065741616815328,0.4989970028400421,-0.0293076653033494,1.3083497285842896,walking
1783090507104512300,2.48551220703125,-0.3160273126170039,-0.6178670368622988,-0.7399433375447988,0.4134198129177093,0.0728362798690795,1.2673572301864624,walking
1783090507114557000,2.495556884765625,-0.2959089459568262,-0.8633123083863407,-0.9547808509677648,0.3338812291622162,0.1606647074222564,1.2057936191558838,walking
1783090507124601000,2.50560107421875,-0.2257537519738078,-0.8550818017881363,-1.410796772250533,0.2842212915420532,0.2445952892303466,1.1518611907958984,walking
1783090507134645200,2.515645263671875,-0.0301677592486143,-0.563197215976566,-1.75933490011096,0.2620315849781036,0.3023382425308227,1.1469959020614624,walking
1783090507144690000,2.52568994140625,0.3111547381445765,-0.0916281170573085,-1.6693039160519838,0.2580094039440155,0.3143786787986755,1.1813206672668457,walking
1783090507154734000,2.535734130859375,0.5041840321242809,0.3123175713788718,-1.4315660040348768,0.2632955610752105,0.3136253952980041,1.2303154468536377,walking
1783090507164779300,2.545779296875,0.2511418757304549,0.4727930146910249,-1.2798738058328627,0.2817091643810272,0.3410998880863189,1.2797999382019043,walking
1783090507174823200,2.5558232421875,-0.0995847020849585,0.4807675007015466,-1.0341022249639034,0.3187649548053741,0.3896081745624542,1.3368332386016846,walking
1783090507184868000,2.5658681640625,-0.3478662199482321,0.5510485130213201,-0.695613781952858,0.3664145171642303,0.4459673166275024,1.3882207870483398,walking
1783090507194912300,2.575912353515625,-0.3496379057958722,0.5546840930446982,-0.3526671904891729,0.3898460268974304,0.4912593364715576,1.4161256551742554,walking
1783090507204956200,2.5859560546875,-0.0548413049951195,0.4849870911579579,-0.0987812767475843,0.3788506388664245,0.5118668675422668,1.4290108680725098,walking
1783090507215001000,2.5960009765625,0.2264817739874124,0.4193524433393031,-0.1068055932492017,0.332727700471878,0.5246994495391846,1.4243279695510864,walking
1783090507225045200,2.606045166015625,0.5451010027937591,0.2438818215996026,-0.2216086149930954,0.2919195592403412,0.5317245721817017,1.4144330024719238,walking
1783090507235090000,2.61608984375,0.7589595881819725,0.0649625207107514,-0.3444371222823858,0.2484370321035385,0.5535325407981873,1.3915040493011477,walking
1783090507245134000,2.626134033203125,0.5919619765594601,-0.0769379859909415,-0.4435504074633121,0.1936531662940979,0.5661580562591553,1.3589410781860352,walking
1783090507255179300,2.63617919921875,0.5108993118539452,-0.2045999778512865,-0.2003805335253477,0.1332552582025528,0.5232784748077393,1.3230509757995603,walking
1783090507265223000,2.646222900390625,0.4812039924226701,-0.3565156095456331,0.2883808885395527,0.0791257098317146,0.4322987794876098,1.2727221250534058,walking
1783090507275268000,2.65626806640625,0.335784006357938,-0.5063986394338309,0.6132376965612173,0.0587583221495151,0.3152724802494049,1.2309828996658323,walking
1783090507285312300,2.666312255859375,0.3247457488626241,-0.5330634320627897,0.7819102556586265,0.0825118571519851,0.1916373670101165,1.2192723751068115,walking
1783090507295356200,2.676356201171875,0.6447483948513865,-0.4684088813226669,0.9220674988895654,0.1478822082281112,0.0872547477483749,1.209206461906433,walking
1783090507305401000,2.686401123046875,0.9378757472656668,-0.3845103356041014,0.8251520160138607,0.2156940102577209,-0.0001081228256225,1.1942238807678225,walking
1783090507315445200,2.6964453125,1.4611794904015958,-0.3025488954279571,0.7535217810422181,0.2490799725055694,-0.0871146842837333,1.1906498670578003,walking
1783090507325490200,2.706490234375,1.7564717657648026,-0.1630833607882261,0.5737707785695791,0.2397237569093704,-0.1287947595119476,1.201088309288025,walking
1783090507335534000,2.7165341796875,1.663983451681584,-0.0652748745955526,0.2168114438444376,0.2094276398420334,-0.1340851336717605,1.2271052598953247,walking
1783090507345579300,2.726579345703125,1.7310538313917814,-0.1559879956997931,0.1860106473892927,0.1781405508518219,-0.1353570520877838,1.271623969078064,walking
1783090507355623000,2.736622802734375,1.5250276931948958,-0.2186659126047045,0.2197977661788463,0.162813514471054,-0.1064564064145088,1.3127973079681396,walking
1783090507365667000,2.7466669921875,0.9617524435460568,-0.173932744647935,0.091454294860363,0.179727241396904,-0.0257573015987873,1.3596539497375488,walking
1783090507375712300,2.756712158203125,0.47702641447708,-0.1054078552804887,0.1426286017805337,0.2146997600793838,0.0342631675302982,1.4085769653320312,walking
1783090507385756000,2.766755859375,0.5711892376437783,-0.0213883865959942,0.6764157450079917,0.2404005974531173,0.0201801061630249,1.4453821182250977,walking
1783090507395801000,2.776801025390625,0.7283889472208916,0.0793711314219981,1.0384341166883706,0.242151454091072,-0.0222929455339908,1.4693357944488523,walking
1783090507405845200,2.78684521484375,0.8754096464805304,0.0900882672041654,0.9370628234475852,0.2174106836318969,-0.0554130785167217,1.4779201745986938,walking
1783090507415890200,2.79689013671875,1.0873328798919917,0.0228881236344575,0.6629243952721356,0.1808235794305801,-0.0614675134420394,1.476914644241333,walking
1783090507425934000,2.80693408203125,1.1313353954866527,0.020547186531499,0.335579862087965,0.1433097571134567,-0.0197179373353719,1.4708977937698364,walking
1783090507435978200,2.816978271484375,0.927390009086579,0.0342099473115056,-0.0012257424026727,0.1114183589816093,0.0323309600353241,1.4708425998687744,walking
1783090507446023200,2.827023193359375,0.8673138721778988,-0.0120722767181694,-0.0472743768721818,0.0908534303307533,0.0389989838004112,1.492086410522461,walking
1783090507456067000,2.837067138671875,0.9451726262755692,-0.0758388656426221,0.0467366167336702,0.1019219979643821,0.0125471148639917,1.5066218376159668,walking
1783090507466112300,2.8471123046875,0.9962468338221312,-0.2344317831438034,0.0123410106569528,0.1465390026569366,-0.0193466357886791,1.496518611907959,walking
1783090507476156200,2.85715625,0.943996714363992,-0.3950093716561794,-0.0376847107499837,0.2042457014322281,-0.0491011217236518,1.4723104238510132,walking
1783090507486201000,2.867201171875,0.8969752893395722,-0.5421551586002111,0.0499929881811141,0.2283252030611038,-0.0812012702226638,1.438325047492981,walking
1783090507496245200,2.877245361328125,0.9029710226230324,-0.6179452166650444,0.2645762345820665,0.1923828572034835,-0.1452366858720779,1.40069842338562,walking
1783090507506290200,2.887290283203125,1.1113266266807913,-0.662554685176909,0.4601765480935573,0.131677433848381,-0.2323806434869766,1.3559386730194092,walking
1783090507516334000,2.897333984375,1.3026191599957644,-0.8030149299424141,0.5447632952719926,0.0802663713693618,-0.3219262361526489,1.2988715171813965,walking
1783090507526378200,2.907378173828125,1.204303308802843,-0.9263952258955688,0.546487634846568,0.0577157847583293,-0.4153549969196319,1.2526757717132568,walking
1783090507536423200,2.917423095703125,0.9939815192386507,-0.9840326644152402,0.5809457847654819,0.0581667982041835,-0.4866245985031128,1.2383373975753784,walking
1783090507546467000,2.927467041015625,0.77329221104756,-0.8796277025669813,0.5817991867244243,0.0753428488969802,-0.5391783118247986,1.2445756196975708,walking
1783090507556512000,2.937511962890625,0.7144057223148643,-0.6748194157272577,0.6468541349589825,0.1141665875911712,-0.5665163397789001,1.2762236595153809,walking
1783090507566556200,2.94755615234375,0.9136135587990284,-0.3828342190854251,0.5500029494911431,0.168857529759407,-0.511303186416626,1.3291665315628052,walking
1783090507576601000,2.95760107421875,0.9819333540484309,0.013430705589801,-0.0443307246357202,0.2020547240972519,-0.329328328371048,1.4050079584121704,walking
1783090507586645200,2.967645263671875,1.096071482142806,0.3160965784609317,-0.6689817956149577,0.1834871619939804,-0.074030764400959,1.50447416305542,walking
1783090507596689200,2.977689208984375,1.44426971052438,0.506258646441251,-1.119902439585328,0.1309921145439148,0.2152434885501861,1.6070743799209597,walking
1783090507606734000,2.987734130859375,1.5659885030061005,0.6473258441239595,-1.444402104732394,0.0617821477353572,0.5063884854316711,1.7011195421218872,walking
1783090507616778200,2.9977783203125,1.265374594228715,0.5070004047192633,-1.5985925494909283,-0.0008070033509284,0.7422779202461243,1.7701939344406128,walking
1783090507626823200,3.0078232421875,0.9738511698797344,0.0963049497619271,-1.3246815003305672,-0.0465449281036853,0.8925284147262573,1.8206195831298828,walking
1783090507636867000,3.0178671875,0.6265742941267788,-0.2605520936325192,-0.8963707475751638,-0.0833274647593498,0.9758856296539308,1.8335978984832764,walking
1783090507646912000,3.027912109375,0.3398505251444876,-0.4955484518565237,-0.4947860891819,-0.1180130094289779,0.9488310813903807,1.852307915687561,walking
1783090507656956200,3.0379560546875,0.4130775277882814,-0.5624124953396618,-0.0704208591818809,-0.1684352755546569,0.8639066219329834,1.758041501045227,walking
1783090507667000000,3.048,0.8602700180809945,-1.11972153006047,0.1366980426877737,-0.2192438691854477,0.7392717003822327,1.6345081329345703,walking
1783090507677045000,3.058044921875,0.8062554462336003,-1.3174364976383746,0.1504933438062667,-0.250019371509552,0.6484843492507935,1.5389724969863892,walking
1783090507687089200,3.068089111328125,0.4537885275568812,-1.2961721758134663,0.1796674158424138,-0.2569563686847687,0.5513316988945007,1.432956576347351,walking
1783090507697134000,3.078134033203125,0.422010264371708,-1.4044662540547548,0.4670873503953218,-0.2402831315994262,0.4301438927650451,1.3200401067733765,walking
1783090507707178200,3.08817822265625,0.3255988585606217,-1.5694653853364289,0.5762912369579076,-0.2208646982908249,0.3067851960659027,1.191784143447876,walking
1783090507717223400,3.098223388671875,-0.0177932847134768,-1.7501545454420149,0.3541629820048809,-0.1975542902946472,0.1928713470697403,1.0687919855117798,walking
1783090507727267300,3.108267333984375,-0.2530798580557107,-1.8192089385762809,0.1128337674975395,-0.167978823184967,0.1232866868376731,0.9729533195495604,walking
1783090507737311500,3.1183115234375,-0.2439995296951383,-1.7506379450447855,-0.2140156756460666,-0.1321794390678405,0.0750539526343345,0.9047867655754088,walking
1783090507747356400,3.1283564453125,-0.0251183669045567,-1.639907871828228,-0.4018202207148075,-0.0848739743232727,-0.0113400565460324,0.8572129011154175,walking
1783090507757400300,3.138400390625,0.2269223573617637,-1.5904719330079853,-0.350518488022685,-0.0332704335451126,-0.1141489967703819,0.8104935884475708,walking
1783090507767445200,3.1484453125,0.4551078665271401,-1.6099448413714763,-0.4167074087232351,0.0175820924341678,-0.2197611629962921,0.7831745743751526,walking
1783090507777489400,3.158489501953125,0.6582021890558302,-1.6076578994780777,-0.4534656522780657,0.074978619813919,-0.295081079006195,0.7748865485191345,walking
1783090507787534600,3.16853466796875,0.5145735433872789,-1.6705878183826803,-0.5486550420135259,0.1081064790487289,-0.3416682779788971,0.7710875868797302,walking
1783090507797578200,3.178578125,0.2885973077692091,-1.6539502795755865,-0.5028396317780017,0.1016085520386695,-0.3560798764228821,0.7847722172737122,walking
1783090507807623400,3.18862353515625,0.314134046216309,-1.4779676897257563,-0.2527256377905607,0.0720264241099357,-0.3402479290962219,0.7790834307670593,walking
1783090507817667600,3.19866748046875,0.3790639798317104,-1.2150872992761432,-0.0425619613975286,0.0420824959874153,-0.2816888093948364,0.7785100936889648,walking
1783090507827711200,3.208711181640625,0.2572314247772097,-0.7476295081332326,-0.00054068274796,0.0075351726263761,-0.1907330602407455,0.8195827007293701,walking
1783090507837756400,3.21875634765625,0.1821574060272425,-0.2157145885184407,0.1432464414179325,-0.0278767216950655,-0.1219769939780235,0.8800384998321533,walking
1783090507847800300,3.22880029296875,0.3241352157488465,0.2259925291657447,0.2912812861561775,-0.0383522659540176,-0.0811294242739677,0.9541997909545898,walking
1783090507857845200,3.23884521484375,0.4096434616863727,0.4401680715486407,0.2367629295051097,-0.0337211415171623,-0.0613738223910331,0.9976137280464172,walking
1783090507867889400,3.248889404296875,0.45710824656412,0.3181879977822303,-0.0539098693639039,-0.0152768865227699,-0.0632329732179641,1.0437028408050537,walking
1783090507877934300,3.258934326171875,0.5165197820842266,0.2088201528295874,-0.2691694075912237,0.0236135572195053,-0.0846266970038414,1.0718470811843872,walking
1783090507887978200,3.268978271484375,0.6123408938519657,-0.042667467598617,-0.2709878551900386,0.0638472661375999,-0.1296983063220977,1.0700931549072266,walking
1783090507898022400,3.2790224609375,0.6317648485071957,-0.3571266541160643,-0.1060772789746522,0.0838756188750267,-0.1964402496814727,1.0668822526931765,walking
1783090507908067600,3.289067626953125,0.5414367081325501,-0.3588010170690715,0.0848100345402955,0.0719198882579803,-0.259070873260498,1.0520998239517212,walking
1783090507918111200,3.299111328125,0.4965528065934776,-0.4258646747775375,0.2681844882071018,0.0626369044184684,-0.3394407927989959,1.026263952255249,walking
1783090507928156400,3.309156494140625,0.2123573870450258,-0.4837587914720177,0.4898597386956214,0.0699853673577308,-0.3808383047580719,0.9740170836448668,walking
1783090507938200600,3.31920068359375,0.0802983292695134,-0.2750119961395859,0.5793909565389156,0.0802443176507949,-0.3859627544879913,0.9238053560256958,walking
1783090507948245200,3.329245361328125,0.1072114706363528,0.1524665435753762,0.7957645934879779,0.0670630037784576,-0.3677746951580047,0.8952695727348328,walking
1783090507958289400,3.339289306640625,0.3078304160274565,0.5281671113885938,0.848100345402956,0.0424541980028152,-0.3249443769454956,0.886972188949585,walking
1783090507968333600,3.34933349609375,0.7052857925962657,0.6801745130196213,0.8025760270684957,0.0269769709557294,-0.2709895372390747,0.8700328469276428,walking
1783090507978378200,3.359378173828125,1.0051469102449715,0.6585108166135847,0.6915595381259918,-0.0028089648112654,-0.2178592234849929,0.8115547299385071,walking
1783090507988422400,3.36942236328125,1.2693208476364612,0.3547755609452724,0.5510030664443969,-0.0207685250788927,-0.1822290569543838,0.7256128787994385,walking
1783090507998467300,3.37946728515625,1.3686977521896362,-0.0088284724913537,0.4254214610546827,-0.02341572009027,-0.1916705965995788,0.6533148288726807,walking
1783090508008511200,3.38951123046875,1.1957815641731022,-0.291228094664216,0.2380827799320221,0.0155391357839107,-0.2145937532186508,0.5707229971885681,walking
1783090508018556400,3.399556396484375,0.9529006632443516,-0.6333917190566659,0.0937152255296707,0.0868162810802459,-0.284932017326355,0.4594711661338806,walking
1783090508028600600,3.4096005859375,0.6122291040405631,-0.8580271345250308,-0.0264379250705242,0.1838083416223526,-0.3728823661804199,0.3564670085906982,walking
1783090508038644200,3.419644287109375,0.3271489375468343,-0.964236807707697,-0.2720265505880117,0.303253173828125,-0.4548871517181396,0.265891283750534,walking
1783090508048689400,3.429689453125,0.26851656970568,-0.9000577655248343,-0.5024707984656095,0.440016895532608,-0.4832338392734527,0.1739653646945953,walking
1783090508058733600,3.439733642578125,0.1610964978199452,-0.7684079461373389,-0.98890056271255,0.5801755785942078,-0.4323719441890716,0.1136136949062347,walking
1783090508068778200,3.4497783203125,0.0087920129384845,-0.6652059303380549,-1.6846464466124773,0.6710389256477356,-0.2974628508090973,0.1034673228859901,walking
1783090508078822400,3.459822509765625,0.1401477447502315,-0.6092927583277226,-1.988521256881952,0.6806817054748535,-0.1868061125278473,0.1499642580747604,walking
1783090508088867300,3.469867431640625,0.4759458526987582,-0.4299539899177849,-1.759770953440666,0.6008177399635315,-0.128861591219902,0.2156492620706558,walking
1783090508098911200,3.4799111328125,0.7092278812855481,-0.3337963396720588,-1.5667612409442662,0.4813188314437866,-0.1544750034809112,0.2736045122146606,walking
1783090508108955400,3.489955322265625,0.8967747252661734,-0.4130171759031713,-1.157232345548272,0.368613064289093,-0.2852732539176941,0.2840182781219482,walking
1783090508119000300,3.500000244140625,1.1080294117663054,-0.585969019754976,-0.6354045201838017,0.287293016910553,-0.4938703775405884,0.2677209377288818,walking
1783090508129044200,3.510044189453125,1.1322213845409452,-0.5457420771762729,-0.1528963132947683,0.2387422621250152,-0.7629575133323669,0.2704101800918579,walking
1783090508139089400,3.52008935546875,0.9168748986825348,-0.4849985624000429,0.3037631665885448,0.1155439391732215,-0.9990929961204528,0.3130785226821899,walking
1783090508149133600,3.530133544921875,0.6930095908038317,-0.3034520548127591,0.2596393627017736,0.0345297791063785,-1.244490385055542,0.3920332789421081,walking
1783090508159178200,3.54017822265625,0.4618231462568044,-0.0264374866791069,0.9272375950038432,0.0407982319593429,-1.3411157131195068,0.5153193473815918,walking
1783090508169222400,3.550222412109375,0.0422026265658438,0.4269815499782562,0.6022586219072341,0.1469795256853103,-1.3871699571609497,0.6295031905174255,walking
1783090508179266600,3.5602666015625,-0.3959587813355028,0.5521243255592883,0.9889093305408954,0.3115979135036468,-1.3488032817840576,0.7138359546661377,walking
1783090508189311200,3.570311279296875,-0.4849659753046929,0.8311099015049636,0.8271668629676103,0.466776043176651,-1.2068579196929932,0.7784472107887268,walking
1783090508199355400,3.58035546875,-0.6497486873567104,1.0286194096386432,0.3310819661468267,0.575477659702301,-0.9923001527786256,0.8099845051765442,walking
1783090508209400300,3.590400390625,-1.0029277728907764,1.056113858024776,0.1990326260477304,0.5697017908096313,-0.7638728618621826,0.8122519254684448,walking
1783090508219444200,3.6004443359375,-1.0317794811047614,1.009412312604487,-0.1764478692740201,0.4940390288829803,-0.4972435235977173,0.8046995401382446,walking
1783090508229489400,3.610489501953125,-1.0994324830085038,0.8314486319400369,-0.7234323477268219,0.4248040318489074,-0.1977899372577667,0.7882265448570251,walking
1783090508239533300,3.620533203125,-1.208580693861097,0.5066387318000197,-1.2382272057145831,0.3823727965354919,0.1232593283057212,0.7530226707458496,walking
1783090508249577200,3.6305771484375,-1.2055617844313382,0.0608716712005436,-1.732487809717655,0.329138845205307,0.4184718132019043,0.6951143741607666,walking
1783090508259622400,3.640622314453125,-1.0338684162080287,-0.3049601943533867,-1.9768769963175057,0.2652406394481659,0.6379339098930359,0.611529529094696,walking
1783090508269666600,3.65066650390625,-0.7341887195408344,-0.6059528002500534,-1.7221008557379245,0.2121582478284835,0.7291370630264282,0.5154794454574585,walking
1783090508279711500,3.66071142578125,-0.3528388937942683,-0.843750552695617,-1.174385140401125,0.1826405823230743,0.6910166144371033,0.4066445827484131,walking
1783090508289755400,3.67075537109375,-0.0190364166423678,-0.910807926793769,-0.5931523553878069,0.1791164278984069,0.5973796248435974,0.3073310554027557,walking
1783090508299800300,3.68080029296875,0.1873285981200635,-0.820202065456286,-0.2393330722540617,0.1626716554164886,0.4514564275741577,0.2289788424968719,walking
1783090508309844200,3.69084423828125,0.1571076473794877,-0.5507425888773053,0.1198112052947282,0.1013995036482811,0.3028408288955688,0.2077598422765731,walking
1783090508319889400,3.700889404296875,-0.0217201027683913,-0.2861793599072844,0.2785562446177005,0.0260587893426418,0.1628380566835403,0.2312221825122833,walking
1783090508329933300,3.710933349609375,-0.2404177987508475,-0.0884798090942203,0.4456500100910663,-0.0247340835630893,0.0484393090009689,0.277610182762146,walking
1783090508339977200,3.720977294921875,-0.5211486109286546,-0.0490517618082463,0.5218973834693431,-0.0263249650597572,-0.0303669814020395,0.3273387253284454,walking
1783090508350022400,3.7310224609375,-0.8113898865126072,-0.0714554629266262,0.5813420906066894,-0.0087270624935626,-0.1005002632737159,0.3769062757492065,walking
1783090508360066300,3.74106640625,-0.7723312570609152,-0.0744961457967758,0.7495633988052606,0.0310696624219417,-0.1489135771989822,0.4017019271850586,walking
1783090508370111500,3.751111572265625,-0.7425120189890265,-0.1734738218992948,0.6966057155996561,0.0808966010808944,-0.1744730025529861,0.3995234370231628,walking
1783090508380155400,3.7611552734375,-0.4290102793268859,-0.3482416291318833,0.7358002463907003,0.1202674582600593,-0.2109439671039581,0.3812015652656555,walking
1783090508390200300,3.771200439453125,-0.1390264856353402,-0.5034640472866595,0.8933762419342994,0.148262619972229,-0.2472870796918869,0.375898152589798,walking
1783090508400244500,3.781244384765625,-0.1116720302417874,-0.5936489797983319,0.9229553876399992,0.1423390358686447,-0.3163485825061798,0.3856624960899353,walking
1783090508410288400,3.791288330078125,0.3288249810002744,-0.6455832382403314,1.168795357570052,0.0934351310133934,-0.389851838350296,0.3790573179721832,walking
1783090508420333300,3.801333251953125,0.6874503492414951,-0.8525130472786724,1.1875883208453657,0.0234598610550165,-0.4040857553482055,0.3146061301231384,walking
1783090508430377500,3.81137744140625,0.5188664913408458,-1.163534733628109,0.8388567162394523,-0.0274027865380048,-0.3645263612270355,0.2831097245216369,walking
1783090508440422400,3.82142236328125,0.4008620432071387,-1.0328205145902931,0.7951420776754617,-0.0795590505003929,-0.2872158586978912,0.2793581783771515,walking
1783090508450466300,3.83146630859375,0.5057455823525786,-0.9216472276508808,1.0162252074897289,-0.0803452134132385,-0.2435432225465774,0.2918265759944916,walking
1783090508460511500,3.841511474609375,0.2163623849026858,-0.9067080902595072,1.3977484901070594,-0.0161936935037374,-0.2246607095003128,0.3053547441959381,walking
1783090508470555400,3.851555419921875,-0.1331602239504456,-0.9524514581721276,1.4655185425192117,0.0308931246399879,-0.2021743059158325,0.3215936422348022,walking
1783090508480599300,3.861599365234375,-0.3931520533517003,-1.0649101818121969,1.2651444387346504,0.0621325559914112,-0.1553351730108261,0.3534311652183532,walking
1783090508490644500,3.87164453125,-0.8009662537842989,-1.1915694994360209,1.0256289956510067,0.1018546670675277,-0.1099932640790939,0.3801522552967071,walking
1783090508500688400,3.8816884765625,-0.8523097797915339,-1.3091940083414315,0.9067220457196236,0.1375454366207122,-0.1134025156497955,0.3721671104431152,walking
1783090508510733300,3.8917333984375,-0.5425280835658312,-1.3351377201542258,1.011289504653215,0.1660700142383575,-0.1525326073169708,0.3456966280937195,walking
1783090508520777500,3.901777587890625,-0.4431973562419414,-1.2633521484903991,0.8499567869246005,0.1775335967540741,-0.1560815721750259,0.3274509608745575,walking
1783090508530822400,3.911822509765625,-0.4220559301443398,-1.2419659538514911,0.5061573780238628,0.1592693775892257,-0.1407066136598587,0.3094192147254944,walking
1783090508540866300,3.9218662109375,-0.359009837514162,-1.3443544613108038,0.4299567663967609,0.1337610632181167,-0.1040530577301979,0.2765519917011261,walking
1783090508550910500,3.931910400390625,-0.3839323895856738,-1.4473667997568844,0.3979600381553173,0.1217337027192115,-0.0565654300153255,0.2428739368915558,walking
1783090508560955400,3.941955322265625,-0.4158747572913766,-1.4327140050262213,0.432241077941656,0.1211362481117248,-0.0417184010148048,0.2121854573488235,walking
1783090508570999300,3.951999267578125,-0.4445986013419926,-1.4059335501283403,0.4754606264650821,0.119308516383171,-0.075529359281063,0.1913635432720184,walking
1783090508581044500,3.96204443359375,-0.50805561286062,-1.399288851416856,0.4233271191239356,0.1132110431790351,-0.1398149877786636,0.1762356609106063,walking
1783090508591088400,3.97208837890625,-0.5366191517829895,-1.3530242361091076,0.2917243537485599,0.1031320467591285,-0.2236843258142471,0.1695114523172378,walking
1783090508601133300,3.98213330078125,-0.6492994822844863,-1.244073009133339,0.0903700067549943,0.1101862415671348,-0.3210790455341339,0.166206955909729,walking
1783090508611177500,3.992177490234375,-1.2147900698952376,-1.078989341373369,-0.4983341370522975,0.1567055433988571,-0.4180308878421783,0.1737820506095886,walking
1783090508622476300,4.003476318359375,-1.169497806750983,-1.0616419737964868,-0.5064478854030371,0.2642029821872711,-0.4562856256961822,0.1975278556346893,walking
1783090508632521500,4.013521484375,-1.7832995669357476,-1.023708841243386,-1.1399614772737026,0.3678683638572693,-0.3873564898967743,0.2547003626823425,walking
1783090508642565400,4.0235654296875,-2.177517642083764,-0.716591761117056,-1.786148088234663,0.4227817058563232,-0.2681580185890198,0.3358024656772613,walking
1783090508652609300,4.033609375,-1.9206128189124163,-0.3472531295511871,-2.125556568700075,0.4419197142124176,-0.0752378180623054,0.4045900404453277,walking
1783090508662654500,4.043654541015625,-1.7143012879028916,0.048700902543962,-2.590601015090942,0.4179417788982391,0.1396743804216385,0.5160694122314453,walking
1783090508672698400,4.053698486328125,-0.9257501329250634,0.7170044335711747,-2.8421260449200867,0.3622273802757263,0.3216955661773681,0.6127373576164246,walking
1783090508682743300,4.063743408203125,-0.020282763441652,1.039921432636678,-2.8497008640885353,0.2882422804832458,0.3993707597255707,0.6386217474937439,walking
1783090508692787500,4.073787353515625,0.3510637008152902,0.700574984556809,-2.419284078964591,0.1999470293521881,0.3084296882152557,0.5823962688446045,walking
1783090508702832000,4.08383203125,0.1556467810466885,-0.2995966214936226,-1.541895679756999,0.1102406233549118,0.1163094341754913,0.5021544694900513,walking
1783090508712876300,4.093876220703125,-0.468292780662328,-0.9665670042209328,-0.7463596343278884,0.0399483554065227,-0.1369020640850067,0.4577337503433227,walking
1783090508722920200,4.103920166015625,-0.8552396957635879,-1.2020888476237654,0.0616974545001983,0.0444753617048263,-0.3895070552825928,0.3910160362720489,walking
1783090508732965000,4.113965087890625,-1.2862310659050942,-1.687640367731452,0.6213894388347864,0.1423843502998352,-0.5900428295135498,0.2621416747570038,walking
1783090508743009300,4.12400927734375,-1.8935145302370189,-2.0473574767321345,0.5693623144775629,0.2868098616600036,-0.6151071786880493,0.1058678925037384,walking
1783090508753054200,4.13405419921875,-2.4227419643335044,-1.7960013737291096,-0.0645341392308473,0.4233424067497253,-0.5090345740318298,0.0024030180647969,walking
1783090508763098000,4.14409814453125,-1.9943439716860651,-1.1226934585433452,-0.6489239269703626,0.5163187980651855,-0.3564498126506805,-0.0389476865530014,walking
1783090508773143300,4.154143310546875,-1.088349217327684,-0.2967934006411582,-1.2950403953045606,0.5481310486793518,-0.1231371834874153,-0.0427386946976184,walking
1783090508783187200,4.164187255859375,-0.4222616818495094,0.3312845029816031,-2.2896166655659673,0.5175898671150208,0.1789274662733078,-0.0254544783383607,walking
1783090508793231400,4.1742314453125,0.0197856275744736,0.5818662606112659,-3.068029142236709,0.4550082683563232,0.5152223706245422,0.0210166163742542,walking
1783090508803276300,4.1842763671875,-0.0161520933777093,0.75619450738281,-3.379511504900455,0.3832342028617859,0.855332612991333,0.103083349764347,walking
1783090508813320200,4.1943203125,-0.5553353965602815,1.0012636390708387,-3.115302350065112,0.3137352764606476,1.0298885107040403,0.2540872395038605,walking
1783090508823365000,4.204365234375,-0.0662917965531349,1.1500379039995372,-1.6802198623418807,0.2712576389312744,0.9313170909881592,0.409505546092987,walking
1783090508833409300,4.2144091796875,1.2149231947556138,1.1593686269246042,0.2610585818499326,0.2777757048606872,0.6581223011016846,0.5069718956947327,walking
1783090508843454500,4.224454345703125,2.1890765624523163,1.0061939350798723,1.3211580023795366,0.3031260669231415,0.3713976144790649,0.5862185955047607,walking
1783090508853498000,4.234498046875,2.756900415316224,0.7708949406474829,1.6539678152322768,0.3185699880123138,0.1491837352514267,0.6543918251991272,walking
1783090508863542300,4.244542236328125,2.8821456283584235,0.4440564207566901,1.7536679603904484,0.3188700079917907,-0.000403338111937,0.7061446309089661,walking
1783090508873587200,4.254587158203125,2.671829684013128,0.1376728425366803,1.84452838101089,0.3022359013557434,-0.067073717713356,0.7207779288291931,walking
1783090508883631000,4.264631103515625,2.035122264537215,-0.0614632438855245,1.7958271862059831,0.2650366425514221,-0.1145876199007034,0.7406055927276611,walking
1783090508893676300,4.27467626953125,1.8228643923439083,-0.0577929213423281,2.0687509778946636,0.2139934301376342,-0.2085330188274383,0.7958586812019348,walking
1783090508903720200,4.28472021484375,1.9412920343257485,0.2591448937157168,2.569334355178475,0.1721070259809494,-0.3061915934085846,0.8513129949569702,walking
1783090508913765000,4.29476513671875,1.7879471004806458,0.5285655361216515,2.5791549074470996,0.1359548866748809,-0.3201441764831543,0.8794876337051392,walking
1783090508923809300,4.304809326171875,1.464641467423737,0.5382113894104957,2.062536925685406,0.1028642430901527,-0.2103487104177475,0.9080268740653992,walking
1783090508933853200,4.314853271484375,1.1528602679438889,0.7025738302238285,1.3535919529944658,0.0884333699941635,-0.0600881054997444,0.9455476403236388,walking
1783090508943898000,4.324898193359375,1.1514305274017154,0.8587997263327241,0.9694570265740156,0.1147492974996566,0.0818926319479942,0.9773024916648864,walking
1783090508953942300,4.3349423828125,1.0766976502396166,0.96728976553753,0.6125204882025719,0.1671358197927475,0.2013497948646545,1.0169204473495483,walking
1783090508963987500,4.344987548828125,0.9553764787733554,1.0929532770570367,0.2691477802813053,0.2097919136285781,0.2813620269298553,1.0788702964782717,walking
1783090508974031000,4.355031005859375,0.7687019606478512,1.1541080760478972,0.1451917302668094,0.211168497800827,0.2931430637836456,1.1387615203857422,walking
1783090508984704300,4.365704345703125,0.5518417092256248,1.0405722977608445,0.2659668121576309,0.1594618707895279,0.2295151948928833,1.1822383403778076,walking
1783090508994748400,4.37574853515625,0.5589394124016165,0.8643094296649098,0.5856628764152526,0.074200764298439,0.1293433159589767,1.1879938840866089,walking
1783090509004793000,4.38579296875,0.4799367489658296,0.6059919266840442,0.7447656431347132,-0.0341565608978271,0.0501831211149692,1.1560713052749634,walking
1783090509014837200,4.395837158203125,0.2294206039182841,0.3319759193118661,0.5763216320961714,-0.1519609689712524,-0.0057001202367246,1.0969315767288208,walking
1783090509024881400,4.40588134765625,0.1228323066815733,0.0695852120753377,0.5630243436276913,-0.2441329509019851,-0.1289053112268448,1.0139158964157104,walking
1783090509034926000,4.415926025390625,0.442871777549386,-0.3388845296565443,0.9107470634520052,-0.2679163217544555,-0.2802117466926574,0.8866608142852783,walking
1783090509044970200,4.42597021484375,0.4303393359735608,-0.7921201725710183,0.7941109810620546,-0.2671017646789551,-0.4663810431957245,0.762218177318573,walking
1783090509055015400,4.436015380859375,0.5852811836212873,-1.103379978525266,0.7856061875671148,-0.2554230093955993,-0.666326642036438,0.6703548431396484,walking
1783090509065059000,4.44605908203125,0.93927772301808,-1.3470055603414772,0.7924275580197572,-0.234413206577301,-0.7953543663024902,0.5891839861869812,walking
1783090509075104300,4.456104248046875,1.1146988795928656,-1.429012227898836,0.2769102309763431,-0.2206414639949798,-0.8246227502822876,0.5414713025093079,walking
1783090509085148400,4.4661484375,1.3187974107280374,-1.1902915884546934,-0.1887239980012178,-0.2132589221000671,-0.7807396054267883,0.5471199750900269,walking
1783090509095192300,4.4761923828125,1.4101662192620337,-0.73833707139194,-0.4150952973514795,-0.2108729928731918,-0.6906678080558777,0.6099343299865723,walking
1783090509105237200,4.4862373046875,1.4618531518794595,-0.2410692483969032,-0.3900421046376228,-0.2098632305860519,-0.5681401491165161,0.7222306132316589,walking
1783090509115281400,4.496281494140625,1.441691530599445,0.2170103274174034,-0.2420019992023706,-0.1945396661758422,-0.3978514969348907,0.8560890555381775,walking
1783090509125326000,4.506326171875,1.2848966024309396,0.5720329219263046,-0.247833189573884,-0.1690263748168945,-0.2052111029624939,0.9890316128730774,walking
1783090509135370200,4.516370361328125,1.216099106667191,0.6490940228402614,-0.239246563014388,-0.1118802726268768,-0.0170433335006237,1.079348921775818,walking
1783090509145415400,4.52641552734375,1.0964185420148074,0.4534867681313306,-0.1882096187382936,-0.0313252173364162,0.1612073928117752,1.1218501329421997,walking
1783090509155459000,4.536458984375,0.8528786657206714,0.1496279591485858,-0.201398186135292,0.037449050694704,0.3233606219291687,1.1440683603286743,walking
1783090509165503200,4.546503173828125,0.5886353163547814,-0.224647909623757,-0.1720569408386945,0.0707588270306587,0.4414029717445373,1.131588578224182,walking
1783090509175548400,4.55654833984375,0.2841026266984641,-0.7530499257467687,-0.0740028093218803,0.0703100860118866,0.5272417068481445,1.067255616188049,walking
1783090509185592000,4.566592041015625,-0.000496989736706,-1.260146045925468,-0.0568494299471378,0.0308403428643941,0.5962174534797668,0.9705342054367064,walking
1783090509195637200,4.57663720703125,-0.1681133177794516,-1.562292863358557,-0.005997779110074,-0.0291316490620374,0.6549132466316223,0.8558193445205688,walking
1783090509205681400,4.586681396484375,-0.2478279288768768,-1.609442152546346,0.027393033838272,-0.073372982442379,0.7009040117263794,0.7433536052703857,walking
1783090509215726000,4.59672607421875,-0.4139480270124971,-1.459713655632734,0.0304115048766136,-0.084907129406929,0.7248913645744324,0.6407028436660767,walking
1783090509225770200,4.606770263671875,-0.5813230936452746,-1.3252309509068727,0.0853156459748745,-0.0619195587933063,0.7029625177383423,0.5544460415840149,walking
1783090509235814400,4.616814453125,-0.4792980126708746,-1.335077222138643,0.2408288637697696,-0.0224816054105758,0.5994821786880493,0.4869852066040039,walking
1783090509245859000,4.626859130859375,-0.1659258907377719,-1.3134291616931555,0.3847340613573789,0.0249847210943698,0.4354506731033325,0.4607717990875244,walking
1783090509255903200,4.6369033203125,0.2011658386841416,-1.1907223810873926,0.2208610114961862,0.0696251615881919,0.271556556224823,0.4653977155685425,walking
1783090509265948400,4.646948486328125,0.4363089119024574,-1.1729583224684,-0.1912666682213544,0.1045126095414161,0.1421710103750229,0.4887075126171112,walking
1783090509275992000,4.656991943359375,0.6565656738951802,-1.215599048190564,-0.4239455432832241,0.1168736666440963,0.071793794631958,0.5179842114448547,walking
1783090509286037200,4.667037353515625,0.7539309463649988,-1.1846534364372492,-0.5325941340506076,0.1086755618453025,0.0624592527747154,0.5395295023918152,walking
1783090509296081400,4.677081298828125,0.6457489501960575,-1.2435842027030886,-0.6169505796045065,0.1013444140553474,0.110081635415554,0.531176745891571,walking
1783090509306125000,4.687125,0.4812753040932118,-1.374362061561644,-0.6886807678192853,0.0966610535979271,0.1514983177185058,0.501981258392334,walking
1783090509316170200,4.697170166015625,0.5112653686873615,-1.349351100554317,-0.5566939715623855,0.0926354229450225,0.1715436577796936,0.4721362590789795,walking
1783090509326214400,4.70721435546875,0.4318414110995829,-1.1816729593217372,-0.6000146423727274,0.0631894096732139,0.1679480671882629,0.453612744808197,walking
1783090509336259000,4.717259033203125,0.2675349382571876,-1.0409820476055145,-0.785350166979432,0.0173343028873205,0.1430099606513977,0.453087568283081,walking
1783090509346303200,4.72730322265625,0.1396098384812474,-0.8831007855050266,-0.9317413361638784,-0.0229955799877643,0.0803224742412567,0.4903103411197662,walking
1783090509356348200,4.73734814453125,-0.0697737934499979,-0.4653342231176793,-1.0614192709565162,-0.0350016430020332,-0.0158831551671028,0.5879628658294678,walking
1783090509366392000,4.74739208984375,-0.519918046220392,0.1470123698227107,-1.2507061635375023,0.006617956329137,-0.097990371286869,0.7253367900848389,walking
1783090509376436200,4.757436279296875,-1.032276324710995,0.7672891712404787,-1.4080693931132555,0.0879010930657386,-0.1433149725198745,0.857417643070221,walking
1783090509386481400,4.7674814453125,-0.9955645506463944,1.0051926490828391,-1.302466161391139,0.1680448502302169,-0.158301442861557,0.9430294036865234,walking
1783090509396525000,4.777525146484375,-0.626546967728436,0.8872253180891275,-1.3086685231626034,0.2135020792484283,-0.1984917372465133,0.9446744918823242,walking
1783090509406570200,4.7875703125,0.231880856551975,0.5980052022464573,-1.5261995134532451,0.234643280506134,-0.290327250957489,0.899332582950592,walking
1783090509416614400,4.797614501953125,1.2664898619942366,0.5060298061214387,-1.6897744571506976,0.2130810022354126,-0.4403556585311889,0.8527043461799622,walking
1783090509426659300,4.807659423828125,2.1161653477594253,0.5421868689127266,-1.7981693654179571,0.1425904184579849,-0.623967170715332,0.8679470419883728,walking
1783090509436703200,4.817703125,2.595551330974698,0.4661040384463966,-1.8427759843856095,0.0550677664577961,-0.8346413373947144,0.9427078366279602,walking
1783090509446747400,4.827747314453125,2.670554257249832,0.4501651494279503,-1.5828835237056016,-0.0239001736044883,-1.0393972396850586,1.0232397317886353,walking
1783090509456792300,4.837792236328125,2.52005156109333,0.4103837586596608,-1.1716308732569216,-0.0509672090411186,-1.1941827535629272,1.1034501791000366,walking
1783090509466836200,4.847836181640625,2.03353791795522,0.5230456767216325,-0.4960772980362176,-0.0411939881742,-1.326997995376587,1.1932079792022705,walking
1783090509476881200,4.857881103515625,1.447035668106377,0.768405900310725,0.655683922624588,-0.0233127269893884,-1.4167190790176392,1.2672004699707031,walking
1783090509486925300,4.86792529296875,1.1316413926959037,0.8064084448382258,1.71509652993381,-0.0050758402794599,-1.442916750907898,1.3182525634765625,walking
1783090509496970200,4.87797021484375,0.9653481299504636,0.8846377858139574,2.455069093573093,0.02107959613204,-1.389176368713379,1.3735978603363037,walking
1783090509507014400,4.888014404296875,1.1014125509098172,1.0845583006121218,2.815019426807761,0.0704321712255477,-1.271122932434082,1.4427024126052856,walking
1783090509517058000,4.89805810546875,1.4572897894866763,1.1380996289245784,2.9274504587233063,0.1404634565114975,-1.1197853088378906,1.5097965002059937,walking
1783090509527103200,4.908103271484375,1.6918337277680635,0.9356979648351668,3.063740505132079,0.2056083381175995,-0.9364201426506042,1.5417885780334473,walking
1783090509537147400,4.9181474609375,1.8294763578295707,0.5380912701621652,3.107872492325306,0.2415756583213806,-0.748602569103241,1.539568305015564,walking
1783090509547192300,4.9281923828125,1.9430922156155108,-0.0563577009074389,3.1016508413314816,0.2436895221471786,-0.6273196339607239,1.4941843748092651,walking
1783090509557236200,4.938236328125,2.1595660980686544,-0.7718954959921538,3.0136767898023127,0.2244761437177658,-0.607729971408844,1.3681215047836304,walking
1783090509567281200,4.94828125,2.3885312133044003,-1.5028094316460192,2.8021301346182823,0.2102011740207672,-0.6615884304046631,1.186900973320007,walking
1783090509577325300,4.9583251953125,2.2774717620030045,-2.02076202301234,2.4054835171490905,0.1998228430747985,-0.7846691012382507,0.9756340980529784,walking
1783090509587369200,4.968369140625,2.005569130055606,-2.2975094646424052,2.1323627415835857,0.1780889183282852,-1.0659074783325195,0.7918617129325867,walking
1783090509597414100,4.9784140625,2.03448835054785,-2.24913662500903,2.4770500392347574,0.1450438797473907,-1.410123348236084,0.6534356474876404,walking
1783090509607458300,4.988458251953125,1.8667858055263755,-1.9780640141449868,2.680155613809824,0.1137810721993446,-1.6798317432403564,0.559175431728363,walking
1783090509617503200,4.998503173828125,1.3610244410827754,-1.621575511801988,2.203240112361312,0.131333440542221,-1.802244782447815,0.5219212770462036,walking
1783090509627547400,5.00854736328125,0.7753691634520888,-1.2329540876172482,1.3228630527317524,0.2174639850854873,-1.781630516052246,0.5147234201431274,walking
1783090509637592300,5.01859228515625,0.1871951809987425,-0.9438086444459854,0.4779448444962501,0.3924927711486816,-1.6455259323120115,0.5239302515983582,walking
1783090509647636200,5.02863623046875,-0.2468096917450427,-0.4821969489827752,-0.2568184600621461,0.6429119110107422,-1.3922206163406372,0.5596080422401428,walking
1783090509657680400,5.038680419921875,-0.5394795096501708,0.0583655335985124,-1.1697265009403228,0.9261037111282348,-1.011557698249817,0.6393436193466187,walking
1783090509667725300,5.048725341796875,-0.7846276979237794,0.398934874536842,-2.4475211624115705,1.154396891593933,-0.5458020567893982,0.7378535866737366,walking
1783090509677769200,5.058769287109375,-1.063418920341134,0.5230488915920257,-3.8416988082945345,1.2632529735565186,-0.0347358845174312,0.8391495943069458,walking
1783090509687814100,5.068814208984375,-1.2890543066322804,0.7319742583617568,-4.963219204470515,1.2125884294509888,0.3933424651622772,0.9246035218238832,walking
1783090509697858300,5.0788583984375,-1.1716609761342405,0.8546167415596544,-5.0755011833041905,1.022474765777588,0.7129771709442139,0.993930160999298,walking
1783090509707903200,5.0889033203125,-1.021194812595844,1.058916567420587,-4.690879350149631,0.7401771545410156,0.934878945350647,1.0846909284591677,walking
1783090509717947100,5.098947021484375,-1.0077630840927363,1.2019653673745692,-4.293083562645315,0.4293814897537231,1.0384831428527832,1.1925289630889893,walking
1783090509727991000,5.108990966796875,-0.9235679665803908,0.9873219882842152,-3.787719965347648,0.1576904356479644,0.9725882411003112,1.2886714935302734,walking
1783090509738036200,5.1190361328125,-0.8169555578157305,0.4815284020714461,-2.831019544494152,0.0080455541610717,0.7512909770011902,1.3467005491256714,walking
1783090509748080000,5.129080078125,-0.5305857168376445,-0.1410630329642444,-1.790209930846095,0.0220468491315841,0.4511614441871643,1.3791134357452393,walking
1783090509758125000,5.139125,-0.2449026890799403,-0.5567268509186803,-1.1237018318682908,0.1628135591745376,0.1578656584024429,1.3956387042999268,walking
1783090509768169200,5.149169189453125,-0.1968394999176263,-0.7851042293943464,-0.934632965952158,0.3519750833511352,-0.0277981366962194,1.4041955471038818,walking
1783090509778214100,5.159214111328125,-0.2222320075884461,-0.9376705800823868,-1.0417916104227305,0.5256667137145996,-0.0857136398553848,1.3941363096237185,walking
1783090509788258000,5.169258056640625,-0.2970043399780988,-0.9400750108756124,-1.2651800945699214,0.6524325013160706,-0.0603171065449714,1.3780064582824707,walking
1783090509798302200,5.17930224609375,-0.3786106100410222,-0.8326682368628681,-1.4014584505409002,0.7223764061927795,0.0428247265517711,1.34189772605896,walking
1783090509808347100,5.18934716796875,-0.4280798666089773,-0.8977065992888063,-1.6520190192520618,0.7458484768867493,0.1491540670394897,1.2727265357971191,walking
1783090509818391000,5.19939111328125,-0.5405404168799519,-1.022355015481636,-1.7531851453095673,0.7344368696212769,0.185839906334877,1.1856805086135864,walking
1783090509828436200,5.209436279296875,-0.7057263029053806,-1.1983137860644608,-1.408312554219365,0.6826565861701965,0.1528428643941879,1.1035507917404177,walking
1783090509838480100,5.219480224609375,-0.8974562047243118,-1.5767676711738108,-0.8541746968805789,0.6061497926712036,0.085931472480297,1.017279863357544,walking
1783090509848524000,5.22952392578125,-0.993624960885942,-1.9621163572981952,-0.3180465434849262,0.543470561504364,0.002641849219799,0.945460319519043,walking
1783090509858569200,5.2395693359375,-0.9180106247141956,-2.0618173792392014,0.1483639305621385,0.5185843706130981,-0.1160264760255813,0.8914847373962402,walking
1783090509868613000,5.249613037109375,-0.6904924934163689,-1.9798022361144425,0.6308440804004669,0.5228245854377747,-0.2759807407855987,0.8435252904891968,walking
1783090509878658000,5.259657958984375,-0.2819265978336334,-1.8668844435952603,1.099353572553396,0.549929678440094,-0.4307905733585357,0.8188827633857727,walking
1783090509888702200,5.2697021484375,0.3035226358309388,-1.5699536072447895,1.3162918576478957,0.5873881578445435,-0.5548913478851318,0.8374249935150146,walking
1783090509898747100,5.2797470703125,1.037680083450675,-0.9963123733390122,1.298699502333999,0.6188211441040039,-0.6638047695159912,0.8995437622070312,walking
1783090509908791000,5.289791015625,1.9174305356144905,-0.4501884572383016,1.3428554549247025,0.6315690279006958,-0.7419466972351074,0.987667679786682,walking
1783090509918835200,5.299835205078125,2.682266322353482,-0.1342968267649412,1.271926646220684,0.6179448366165161,-0.7861418128013611,1.0886718034744265,walking
1783090509928880000,5.309880126953125,3.0078195882067083,-0.1033509227506816,1.1129209101349116,0.5899787545204163,-0.7745919227600098,1.185898780822754,walking
1783090509938924000,5.319924072265625,2.880792752444744,-0.4635987776271998,0.8170569723635911,0.5663381218910217,-0.6664108633995056,1.2511649131774902,walking
1783090509948969200,5.32996923828125,2.174898399496078,-1.0196526977203786,0.3423556398332119,0.5566105842590332,-0.472468763589859,1.2674798965454102,walking
1783090509959013000,5.34001318359375,1.8035440441936252,-1.4382478198863564,0.0559200401425361,0.5370017290115356,-0.2569937109947204,1.2709970474243164,walking
1783090509969058300,5.350058349609375,1.9567133292108776,-1.49427088201195,0.0689320819288492,0.5069876909255981,-0.0888130590319633,1.291372299194336,walking
1783090509979102200,5.360102294921875,1.8933806747242807,-1.3070504204414783,0.1344178227961063,0.4730264842510223,0.0343341715633869,1.3297346830368042,walking
1783090509989146000,5.37014599609375,1.8150427588075395,-1.111383398369327,0.0562543866634368,0.4440078735351562,0.1403829604387283,1.3833435773849487,walking
1783090509999191000,5.38019091796875,1.912069300842285,-0.7455062323689461,-0.1377449213922023,0.4404072761535644,0.2207616865634918,1.4482502937316897,walking
1783090510009235200,5.390235107421875,2.148494084434211,-0.3023262656532228,-0.3036094373315572,0.4579722285270691,0.2748338580131531,1.5346025228500366,walking
1783090510019280100,5.400280029296875,2.36746650570482,0.0034461949311196,-0.373114935234189,0.4935382306575775,0.3196442127227783,1.5911248922348022,walking
1783090510029324000,5.410323974609375,2.4117528066769243,-0.0939892932306975,-0.3629214579999447,0.5441462397575378,0.3640686571598053,1.5834236145019531,walking
1783090510039369200,5.420369140625,2.058474498552084,-0.6208402074541897,-0.3595896832287311,0.6199584007263184,0.3932782113552093,1.5421979427337646,walking
1783090510049413000,5.4304130859375,1.5022592504173515,-1.098464880085364,-0.1411766494065523,0.6579285860061646,0.367076963186264,1.5053770542144775,walking
1783090510059457000,5.44045703125,1.1379919307664037,-1.3170321546211838,0.2325719075560569,0.6453899145126343,0.2900274395942688,1.4853357076644895,walking
1783090510069502200,5.450502197265625,0.9447326274231076,-1.4285659454360604,0.551327476093173,0.6277220845222473,0.1946296095848083,1.4458394050598145,walking
1783090510079546000,5.460546142578125,0.8201105147153138,-1.5114619630485773,0.700137981379032,0.607646644115448,0.0980420857667923,1.3665882349014282,walking
1783090510089591300,5.47059130859375,0.7375260472699999,-1.5324144424453376,0.7599106052964926,0.5917771458625793,0.0306465364992618,1.2642195224761963,walking
1783090510099635200,5.48063525390625,0.6788654762476682,-1.289155428919196,0.7208329788833856,0.5854635834693909,0.0195297040045261,1.2041902542114258,walking
1783090510109680000,5.49068017578125,0.4456801129683851,-0.8258850064635276,0.5742600233912467,0.5911882519721985,0.1089681833982467,1.2081546783447266,walking
1783090510119724300,5.500724365234375,-0.0172746676668524,-0.3836576642975211,0.188201435431838,0.6033162474632263,0.2550103366374969,1.2459672689437866,walking
1783090510129768200,5.510768310546875,0.1542912747845053,-0.0486632739473134,-0.178399003341794,0.5972358584403992,0.3306213319301605,1.2641644477844238,walking
1783090510139813000,5.520813232421875,0.6566515986129641,-0.2125499139424413,-0.2621791103124618,0.5364087224006653,0.3431011736392975,1.219017505645752,walking
1783090510149857000,5.53085693359375,0.5111708222717046,-0.6180268305338918,-0.4225374300509691,0.4376533925533294,0.4050848484039306,1.1578296422958374,walking
1783090510159902200,5.540902099609375,0.0129360539406538,-0.8682790639482438,-0.9577332710325718,0.3547515869140625,0.578488290309906,1.1238889694213867,walking
1783090510169946000,5.550946044921875,-0.2910647207960486,-1.0361476131863891,-1.576131126835942,0.3163624703884125,0.8116974234580994,1.130419135093689,walking
1783090510179991300,5.5609912109375,0.0125619599312543,-0.8073586582351475,-2.0745342374712226,0.3073159754276275,1.0590639114379885,1.1743019819259644,walking
1783090510190035200,5.57103515625,0.4580830829456448,-0.2303586884859949,-2.7367478541254995,0.2844984829425812,1.3172158002853394,1.2424644231796265,walking
1783090510200079000,5.5810791015625,0.5442486237481237,0.2418031156294047,-3.5532851865291595,0.2363999485969543,1.544988989830017,1.3034802675247192,walking
1783090510210124300,5.591124267578125,0.8982312807500362,0.4511478768549859,-3.8246915593922135,0.1789819747209549,1.6304177045822144,1.3926022052764893,walking
1783090510220168200,5.601168212890625,0.9574480243504048,0.8019452548842877,-3.302425342610478,0.1299494504928589,1.548754334449768,1.4959499835968018,walking
1783090510230213000,5.611213134765625,1.0463378755502402,0.937600291325152,-2.3872382508844137,0.1084043160080909,1.308726787567139,1.6053482294082642,walking
1783090510240257300,5.62125732421875,1.1067466054141522,0.7965419345360248,-1.281260876277089,0.1059446185827255,0.9708895683288574,1.6777979135513306,walking
1783090510250301200,5.63130126953125,0.984814462442696,0.5859185316767543,-0.2990221095412969,0.1190759465098381,0.6376299858093262,1.707210898399353,walking
1783090510260346000,5.64134619140625,0.8493234574571251,0.3965515595968812,0.5568763423919677,0.1437820941209793,0.3977515995502472,1.7205511331558228,walking
1783090510270390300,5.651390380859375,0.5386389671728015,0.3154074271529912,1.0735475156456231,0.1636052727699279,0.2624646425247192,1.7026605606079102,walking
1783090510280435200,5.661435302734375,0.0787039727501571,0.2140874257080257,1.3479904797255993,0.1589266210794448,0.2658891975879669,1.6709439754486084,walking
1783090510290479000,5.67147900390625,-0.4231752895630896,0.2941168018430471,1.4412977089762686,0.108869582414627,0.3010191619396209,1.628201961517334,walking
1783090510300524300,5.681524169921875,-0.4911794429920613,0.3751722330901771,1.846253305107355,0.0368997864425182,0.3357729017734527,1.5903971195220947,walking
1783090510310568200,5.691568115234375,-0.6558912817649543,0.5719795843038707,1.9397382290124892,-0.035524658858776,0.3663575351238251,1.5498675107955933,walking
1783090510320612000,5.701612060546875,-0.87110230467543,0.6469670207489282,1.5541975274473427,-0.1056949570775032,0.3129254579544067,1.513266921043396,walking
1783090510330657300,5.7116572265625,-0.3079858988501131,0.5404446283552795,1.317158703610301,-0.1632904708385467,0.1746407747268676,1.4833718538284302,walking
1783090510340701200,5.721701171875,0.2975067365422845,0.6200749952353537,0.8981079466313123,-0.2096587717533111,0.0312902778387069,1.4822123050689695,walking
1783090510350746000,5.73174609375,0.7127718375027179,0.7769378740735352,0.2946194906681776,-0.2488498538732528,-0.0922048166394233,1.5128474235534668,walking
1783090510360790300,5.741790283203125,1.0977391230940818,0.8921336945272982,-0.0147340432733297,-0.2633238732814789,-0.1795413047075271,1.5749120712280271,walking
1783090510370835000,5.7518349609375,1.2925813117146492,0.9180893159735948,-0.1136164423078298,-0.2492586225271225,-0.2359271645545959,1.6427109241485596,walking
1783090510380879000,5.761879150390625,1.3822374711118637,0.906557941199094,-0.0302840791046619,-0.1896112710237503,-0.300961285829544,1.7125552892684937,walking
1783090510390923300,5.77192333984375,1.5415968429408966,0.9379095764700324,0.2282745026230812,-0.1085910126566886,-0.3291616439819336,1.7702752351760864,walking
1783090510400968200,5.78196826171875,1.5577037820026278,0.9458192536160348,0.4496884718269109,-0.0541099309921264,-0.3127195537090301,1.8097736835479736,walking
1783090510411012000,5.79201220703125,1.367892573286593,0.992971027021855,0.6911696620255708,-0.0495644323527812,-0.3075848817825317,1.845713496208191,walking
1783090510421057300,5.802057373046875,1.3932438721641898,0.9796382288485764,1.030852283257246,-0.074013315141201,-0.3040796220302582,1.862829327583313,walking
1783090510431101200,5.81210107421875,1.3751618336372076,0.8908888090327381,1.157034777149558,-0.1105428859591484,-0.3015208542346954,1.838387370109558,walking
1783090510441146000,5.82214599609375,1.2814201584920286,0.7382168060131371,1.0535668038904666,-0.150363802909851,-0.2723903954029083,1.7957046031951904,walking
1783090510451190300,5.832190185546875,1.2121947927050292,0.6360926485784352,0.7127496256709098,-0.1917409598827362,-0.193050667643547,1.7416352033615112,walking
1783090510461234200,5.842234130859375,1.0915468443252143,0.557587267140299,0.3037298488408327,-0.2418251633644104,-0.0892885848879814,1.6931437253952026,walking
1783090510471279000,5.852279052734375,1.06149613558501,0.3846478443786502,0.0432768316686153,-0.2853923738002777,0.0188798680901527,1.64822518825531,walking
1783090510481323300,5.8623232421875,0.8760476521231234,0.1646323437958955,-0.1836187838166952,-0.3121725916862488,0.090413711965084,1.5928527116775513,walking
1783090510491368000,5.872367919921875,0.697826635696739,-0.1368674079053103,-0.2918698996990919,-0.323092520236969,0.0887930616736412,1.5330771207809448,walking
1783090510501412000,5.882412109375,0.743120433210954,-0.448595415893197,0.044784313622117,-0.3081471025943756,0.049961507320404,1.4443649053573608,walking
1783090510511457300,5.892457275390625,0.720478904748708,-0.7359292795978486,0.3262187440246343,-0.2846292853355407,0.0130378454923629,1.3386435508728027,walking
1783090510521501200,5.902501220703125,0.6792009187471121,-0.8677785670801996,0.37844694391191,-0.271190345287323,-0.0029042642563581,1.2381657361984253,walking
1783090510531545000,5.912545166015625,0.7432262316729873,-0.7902785632923245,0.3314046222299337,-0.263369083404541,-0.0149483541026711,1.1547433137893677,walking
1783090510541590300,5.92259033203125,0.8745517144769429,-0.6572177080631255,0.2851730324089527,-0.2727756202220917,-0.0248308107256889,1.087562918663025,walking
1783090510551634200,5.93263427734375,0.850861846005544,-0.5845391330823302,0.1372597682237625,-0.2929469048976898,-0.0443214550614357,1.04163920879364,walking
1783090510561679000,5.94267919921875,0.7205808307532221,-0.595117810241878,0.02189502094388,-0.3171600997447967,-0.0835428982973098,1.0134766101837158,walking
1783090510571723300,5.95272314453125,0.6118536948569119,-0.6521529720194638,0.0032703999727964,-0.3355776667594909,-0.1228197962045669,1.0216251611709597,walking
1783090510581767200,5.96276708984375,0.5189720706071704,-0.6059332187667489,0.0608054740965366,-0.34341961145401,-0.1964122653007507,1.0402764081954956,walking
1783090510591812000,5.97281201171875,0.5358494825847446,-0.6018598318479955,0.3194505650639533,-0.3335946500301361,-0.2956586480140686,1.0295240879058838,walking
1783090510601856300,5.982856201171875,0.5932754703108221,-0.777962979337573,0.5070692321717739,-0.3176133036613464,-0.3745436072349548,0.9953832626342772,walking
1783090510611901000,5.99290087890625,0.6250642548900097,-0.8166416695609688,0.4351853147000074,-0.2970659732818603,-0.3939381241798401,0.9663768410682678,walking
1783090510621945000,6.002945068359375,0.7255783467795699,-0.7162652325764298,0.3075643124371767,-0.2805157601833343,-0.3744603097438812,0.9460161924362184,walking
1783090510631990300,6.012990234375,0.8928657351288944,-0.6273436710640787,0.1963327194392681,-0.2911955416202545,-0.3409051299095154,0.9427146315574646,walking
1783090510642034200,6.0230341796875,0.9003609862551093,-0.5101695362746715,0.0449760368019342,-0.3212519586086273,-0.3203311562538147,0.9361398220062256,walking
1783090510652078000,6.033078125,0.8830725823238491,-0.5651353444322943,-0.0888753842830658,-0.3511880934238434,-0.3286263644695282,0.8967874050140381,walking
1783090510662123300,6.043123291015625,0.8422855947095901,-0.8392202888548373,-0.2357470304608344,-0.3585067093372345,-0.3668379187583923,0.8392953276634216,walking
1783090510672167200,6.053167236328125,0.887033156517893,-1.0503967955522238,-0.2818780825167894,-0.3459896743297577,-0.4240107536315918,0.7831899523735046,walking
1783090510682212000,6.063212158203125,1.0594775623042136,-1.2495265983641146,-0.2420855858325958,-0.3057152330875397,-0.4461237788200378,0.7015637755393982,walking
1783090510692256300,6.07325634765625,1.018461369043961,-1.555730143842101,-0.3886673091530799,-0.2414513081312179,-0.4320870339870453,0.6106932759284973,walking
1783090510702301000,6.083301025390625,0.9427630809158086,-1.785703120946139,-0.4778244329869747,-0.1690032035112381,-0.3815570175647735,0.524639904499054,walking
1783090510712345000,6.093344970703125,0.7417708452329039,-1.9031224626682697,-0.4056295498698949,-0.1128140985965728,-0.294012576341629,0.4667273163795471,walking
1783090510722389200,6.10338916015625,0.6652236121252179,-1.7716117594905196,-0.1554109264642,-0.0835840553045272,-0.1851660013198852,0.4263434112071991,walking
1783090510732434000,6.113433837890625,0.5702212693944573,-1.5147808783382175,-0.0141541975587606,-0.0869695842266082,-0.0611673407256603,0.3937715291976928,walking
1783090510742478000,6.12347802734375,0.4863663436219096,-1.2154381585404277,-0.0780120449632406,-0.1141484752297401,0.0502033941447734,0.3951225280761719,walking
1783090510752523300,6.133523193359375,0.4889360479794442,-0.7926786101713776,-0.0956242740213871,-0.1514480262994766,0.1178869381546974,0.438861072063446,walking
1783090510762567200,6.143567138671875,0.5483077629458158,-0.4113511423870921,-0.0428103832006454,-0.1729916632175445,0.1109091937541961,0.5082857012748718,walking
1783090510772611000,6.153611083984375,0.7084756746787577,-0.1244169455245137,-0.0269967279970645,-0.1395285278558731,0.05783336982131,0.580126941204071,walking
1783090510782656300,6.16365625,0.790290838252008,0.16923983759135,-0.036011224579811,-0.0671965479850769,0.0094003267586231,0.6414920687675476,walking
1783090510792700200,6.1737001953125,0.6872131064195186,0.2004129744902253,-0.123209615561366,-0.0140861058607697,-0.0190714709460735,0.6895242929458618,walking
1783090510802745000,6.1837451171875,0.5053476690761745,-0.0142632108911871,-0.2351800442278385,-0.0070375176146626,-0.0527095906436443,0.7296056747436523,walking
1783090510812789200,6.193789306640625,0.5695329218041152,-0.1664063677310943,-0.1554717167407274,-0.0160307697951793,-0.0567661710083484,0.7397298812866211,walking
1783090510822834000,6.203833984375,0.3484850824989378,-0.2126660146027803,-0.3298778510540723,-0.0279635954648256,-0.0526939332485199,0.7408843636512756,walking
1783090510832878000,6.213878173828125,0.5736104734413325,-0.2185790380388498,-0.5212403808653354,-0.0287527181208133,-0.0788428857922554,0.7239010334014893,walking
1783090510842922200,6.223922119140625,1.3093629351675509,-0.2748793096706271,-0.6279068579047918,-0.0300406254827976,-0.1140075325965881,0.6365832090377808,walking
1783090510852967000,6.233966796875,1.6433169496193527,-0.5974012450039387,-1.061065635213256,-0.0423974245786666,-0.1126892641186714,0.5614442229270935,walking
1783090510863011000,6.244010986328125,1.720186254288256,-0.6527753417015075,-1.6416414176225662,-0.065816730260849,-0.0716203972697258,0.5259000658988953,walking
1783090510873056300,6.25405615234375,1.8257392171278597,-0.5831754435136914,-1.8364649015426635,-0.07722669839859,-0.0472367033362388,0.5161145925521851,walking
1783090510883100200,6.26410009765625,1.8707547091573475,-0.5138569926157593,-1.696642589354515,-0.0757936537265777,-0.0363883152604103,0.5056204199790955,walking
1783090510893145000,6.27414501953125,1.7097141062431036,-0.4099839456871151,-1.5606716918975114,-0.0699593871831893,-0.0309077426791191,0.4957917928695678,walking
1783090510903189200,6.284189208984375,1.4246607546910643,-0.1928942694231867,-1.3592150535732508,-0.0658924803137779,-0.0072428924031555,0.5119441747665405,walking
1783090510913233200,6.294233154296875,1.0837493953820316,0.0608861381173133,-1.0603840826898812,-0.0383472889661788,0.0049830339848995,0.5499255061149597,walking
1783090510923278000,6.304278076171875,0.8144562152806669,0.143101772250235,-0.6228361305117607,0.0198212079703807,0.0221931785345077,0.5775832533836365,walking
1783090510933322200,6.314322265625,0.6075315938740968,0.0302104293465614,-0.3041267392039299,0.0829825773835182,0.0477858409285545,0.5940505862236023,walking
1783090510943367000,6.324366943359375,0.4233083413582295,-0.0528869560569524,-0.0780097068756818,0.1253555864095688,0.0765168294310569,0.6351551413536072,walking
1783090510953411000,6.3344111328125,0.3731289637595414,-0.0450745287403464,0.0495510896325111,0.1642895191907882,0.0903363302350044,0.7011217474937439,walking
1783090510963456300,6.344456298828125,0.4085152613740414,0.0398898195788264,0.0816390032887458,0.2049352079629898,0.0812427029013633,0.7759371399879456,walking
1783090510973500000,6.3545,0.4480339095529168,0.1065264840468764,0.0332066885530948,0.2562160789966583,0.0884752050042152,0.851245105266571,walking
1783090510983544000,6.3645439453125,0.463645977769792,0.1906754243299365,-0.0740612615108489,0.2912624776363373,0.0845249369740486,0.9150581955909728,walking
1783090510993589200,6.37458935546875,0.4435411281783133,0.2392459784924983,-0.0548836828321218,0.2776876986026764,0.035913486033678,0.9543434381484984,walking
1783090511003633000,6.3846328125,0.4380873928170651,0.2875420996278524,0.0191875155508518,0.2306410819292068,-0.0389133505523204,0.9755145311355592,walking
1783090511013678000,6.394677978515625,0.4288209672998637,0.3129249626874923,0.0443728102117776,0.1728018224239349,-0.1529510170221328,0.9807735681533812,walking
1783090511023722200,6.40472216796875,0.4437103472653776,0.2001432176381349,0.2559995448946953,0.1319105923175811,-0.3206787705421448,0.9714916944503784,walking
1783090511033766100,6.41476611328125,0.4654417751453816,0.0900733618959784,0.6135919168263674,0.1218129098415374,-0.5327450037002563,0.9592159390449524,walking
1783090511043811000,6.42481103515625,0.5139990314349532,0.0680029843851924,0.995206384858489,0.1416127234697342,-0.7532811164855957,0.9476886987686156,walking
1783090511053855200,6.434855224609375,0.4984561559967696,0.0858370395004749,1.4494558809906244,0.179434448480606,-0.979772925376892,0.9345114827156068,walking
1783090511063900200,6.444900146484375,0.4302856330249458,0.1041156235128641,1.904150782802701,0.2216721773147583,-1.1701420545578003,0.925005316734314,walking
1783090511073944000,6.454944091796875,0.2855300291530788,0.2173927508637309,2.2246651777058837,0.2674590647220611,-1.304539680480957,0.9233459234237672,walking
1783090511083989200,6.4649892578125,0.1423096720244735,0.3977113240912556,2.3819769693553448,0.3217225670814514,-1.3414814472198486,0.9386612176895142,walking
1783090511094033000,6.475032958984375,-0.1161401155665516,0.6650465019926428,2.3207003706157208,0.3871997892856598,-1.2679414749145508,0.9649584889411926,walking
1783090511104077000,6.4850771484375,-0.3446453582055866,0.8339037700071931,2.0655150647133587,0.4578939378261566,-1.1351776123046875,1.0015803575515747,walking
1783090511114122200,6.495122314453125,-0.3029522885970771,0.8741137614510953,1.6860837859392166,0.5209305882453918,-0.9854037165641784,1.0260204076766968,walking
1783090511124166000,6.505165771484375,-0.3211760736823081,0.7558991776980459,1.075475853359699,0.5577618479728699,-0.8077181577682495,1.0382062196731567,walking
1783090511134211000,6.515211181640625,-0.4341930887922644,0.5808385249987245,0.1238333004176616,0.55802983045578,-0.5798244476318359,1.0536922216415403,walking
1783090511144255200,6.525255126953125,-0.4727725564248859,0.4216279139906168,-0.9633891048371792,0.5282729864120483,-0.3192371129989624,1.0715100765228271,walking
1783090511154300200,6.535300048828125,-0.4373347478188574,0.3213653126440942,-1.841456718480587,0.4942223131656647,-0.063687153160572,1.0667067766189575,walking
1783090511164344000,6.545343994140625,-0.3899659706614911,0.2633826408833265,-2.4536621493846176,0.4638774394989013,0.1807622760534286,1.0554171800613403,walking
1783090511174388200,6.55538818359375,-0.4420012783251703,0.2630124923966825,-2.7108517808467147,0.4434839785099029,0.3679649233818054,1.0345776081085205,walking
1783090511184433200,6.56543310546875,-0.4773476092554629,0.2123464272595941,-2.4423586650818585,0.4243326485157013,0.4727382063865661,1.0053688287734983,walking
1783090511194477000,6.57547705078125,-0.4294938250601291,0.0941809433452784,-1.845279491639137,0.3993488848209381,0.4948261082172394,0.9674135446548462,walking
1783090511204522200,6.585522216796875,-0.3696627489537,0.098703535336256,-1.113514784374833,0.3646763861179352,0.463590145111084,0.9281870126724244,walking
1783090511214566100,6.595566162109375,-0.3572459696467965,0.1770299069456756,-0.4970996268212795,0.3295763731002807,0.398634672164917,0.9027572870254515,walking
1783090511224610000,6.605610107421875,-0.4019191510446369,0.25259645845294,0.0886117649108171,0.2957877814769745,0.3062544167041778,0.8861426115036011,walking
1783090511234655200,6.6156552734375,-0.4836261780682951,0.1791356470532715,0.5487175858557224,0.2703747153282165,0.1788141429424286,0.868354082107544,walking
1783090511244699000,6.625698974609375,-0.4819592677693813,-0.0564874647669494,0.8088035232812165,0.244426742196083,0.0060903038829565,0.8303161859512329,walking
1783090511254744000,6.635744140625,-0.3468714367572218,-0.4076867746606469,0.6304606340408325,0.234140396118164,-0.1540756821632385,0.7828584909439087,walking
1783090511264788200,6.645788330078125,-0.228930847639963,-0.5572532128803431,0.1718780771404504,0.2335345298051834,-0.2973891794681549,0.7399696111679077,walking
1783090511274833200,6.655833251953125,-0.1797551671911031,-0.5405259499631822,-0.0058604164659976,0.2559142112731933,-0.3847500681877136,0.6889206767082214,walking
1783090511284877000,6.665876953125,-0.2421321283880621,-0.4204400193803012,-0.0629810645699501,0.2726308703422546,-0.4130977988243103,0.6472445726394653,walking
1783090511294921200,6.675921142578125,-0.3894909004956484,-0.3964167542360722,0.0418400768637657,0.2745413780212402,-0.377559632062912,0.6156591176986694,walking
1783090511304966100,6.685966064453125,-0.6039294777289033,-0.439956766885519,0.1312017833590507,0.2671615183353424,-0.279568076133728,0.5882964730262756,walking
1783090511315010000,6.696010009765625,-0.8288893028460442,-0.505194670471549,0.2004214500576257,0.2720588445663452,-0.1703738719224929,0.5864472389221191,walking
1783090511325055200,6.70605517578125,-0.7766026507698,-0.4382163529589772,0.2698112126260996,0.2965732514858246,-0.080014944076538,0.6037079691886902,walking
1783090511335099100,6.71609912109375,-0.5567349611598998,-0.3846792624302208,0.4006272115379571,0.3284664750099182,-0.0200287364423275,0.6131637096405029,walking
1783090511345144000,6.72614404296875,-0.3756153006825596,-0.4599601288639008,0.4906511813342571,0.3365893959999084,0.0051418631337583,0.6153525710105896,walking
1783090511355188200,6.736188232421875,-0.1615259752783924,-0.662082683750987,0.4330827894628047,0.3194230794906616,0.0005551245994865,0.604949951171875,walking
1783090511365232000,6.746232177734375,0.0341077290460467,-0.8659209565147757,0.318147665771842,0.3007849454879761,-0.0335844717919826,0.5957100987434387,walking
1783090511375277000,6.756277099609375,0.226284424784407,-0.993109266448766,0.2508341249555349,0.2762675583362579,-0.1311897784471511,0.6204081773757935,walking
1783090511385321200,6.7663212890625,0.6619962475765496,-0.864704566462338,0.4016682450234889,0.2211893945932388,-0.2712605893611908,0.6787649393081665,walking
1783090511395366100,6.7763662109375,1.1672091112919152,-0.6480730092294513,0.5538590403974056,0.1650825887918472,-0.3899664282798767,0.73171067237854,walking
1783090511405410000,6.78641015625,1.4091513431310654,-0.6219748375073075,0.4213303923487663,0.1535929143428802,-0.451462835073471,0.770787239074707,walking
1783090511415454200,6.7964541015625,1.3409212719917296,-0.6527500611297786,0.1035129814445972,0.1930292695760727,-0.4717499911785126,0.8096810579299927,walking
1783090511425499100,6.8064990234375,1.1105412484567612,-0.6665930007822811,0.001947042414546,0.2687234878540039,-0.474482923746109,0.8614079356193542,walking
1783090511435543000,6.81654296875,0.9377401381872594,-0.5939857374720275,0.1663169358819723,0.3530319035053253,-0.4853762090206146,0.9115126729011536,walking
1783090511445588200,6.826588134765625,0.7139556404598056,-0.5705974092304706,0.3038981911450624,0.4118233025074005,-0.5217217206954956,0.9584141373634338,walking
1783090511455632100,6.836632080078125,0.380364175710082,-0.5874982751488685,0.285485751619935,0.4360860884189605,-0.5673983693122864,0.9986177682876588,walking
1783090511465677000,6.846677001953125,0.2579588622689246,-0.7308266957618296,0.1876274349361658,0.4397412836551666,-0.6357957720756531,1.0303431749343872,walking
1783090511475721200,6.85672119140625,0.2805614469602704,-0.9195344732806086,0.1556751303583383,0.4431076943874359,-0.6719049215316772,1.0347838401794434,walking
1783090511485765000,6.86676513671875,0.0855826263479888,-0.9895990663707256,-0.0605769260376691,0.4539084136486053,-0.6781335473060608,1.0115666389465332,walking
1783090511495810000,6.87681005859375,0.2284970593325793,-1.0212953503608704,-0.13023323058784,0.4602013826370239,-0.693001389503479,0.9956642389297484,walking
1783090511505854200,6.886854248046875,0.5408468524806201,-0.7656891886979341,-0.0941746597349643,0.4429946839809418,-0.6735771298408508,0.9887307286262512,walking
1783090511515899100,6.896899169921875,0.5099253522552549,-0.4783909808285534,-0.2956254528403282,0.4052443504333496,-0.621834933757782,0.9745651483535768,walking
1783090511525943000,6.906943115234375,0.4039360438250005,-0.4543237304121255,-0.4671826274633407,0.3686836659908294,-0.5658840537071228,0.9156619310379028,walking
1783090511535988000,6.916988037109375,0.1468909354001283,-0.7633389723099768,-0.5969067394852637,0.3215798735618591,-0.5318952202796936,0.8576658368110657,walking
1783090511546032000,6.9270322265625,-0.1864876172512769,-0.8411644086599349,-0.6620598873972893,0.2909431457519531,-0.501522958278656,0.8713797926902771,walking
1783090511556076000,6.937075927734375,-0.4154227757401764,-0.4019119906514883,-0.8496727092862129,0.29278764128685,-0.4306657910346985,0.9511950016021729,walking
1783090511566121200,6.947121337890625,0.0181270467124879,0.2127503318853676,-1.168616493871808,0.3052533566951751,-0.2946879863739013,1.0296655893325806,walking
1783090511576165000,6.9571650390625,0.5155192267395555,0.7053634609423577,-1.6770996844947337,0.2785274088382721,-0.1003246903419494,1.1021167039871216,walking
1783090511586210000,6.9672099609375,0.8254889928832649,1.1917759817935525,-2.2634856144875286,0.2316869348287582,0.1390442103147506,1.2236077785491943,walking
1783090511596254200,6.977254150390625,0.5990037117645144,1.7248412404872475,-2.699780936256051,0.209836333990097,0.3794708847999573,1.3670752048492432,walking
1783090511606298000,6.987298095703125,-0.1202541267566382,1.908720721066743,-2.6853011600047347,0.2334181070327758,0.6113442778587341,1.4709177017211914,walking
1783090511616343000,6.997343017578125,-0.776498021351546,1.6084036032788454,-2.176799264681339,0.2569316327571869,0.6982455849647522,1.481204628944397,walking
1783090511626387200,7.00738720703125,-0.6911255306228995,1.0703954813554883,-0.7734002014666795,0.237488716840744,0.6375265717506409,1.4405179023742676,walking
1783090511636432100,7.01743212890625,-0.6487021009132266,0.975201269314438,0.2841132942229509,0.1684763431549072,0.5447227358818054,1.378220796585083,walking
1783090511646476000,7.02747607421875,-0.5758988766394555,0.9641359776817262,0.7472434314250945,0.0717298239469528,0.4481962025165558,1.3197453022003174,walking
1783090511656521000,7.03752099609375,-0.3733215637221932,0.9018827889949084,0.8340770807474851,-0.0337216630578041,0.3922234177589416,1.263810157775879,walking
1783090511666565000,7.047565185546875,-0.3096364425361156,0.9007492549203336,0.4910463181316852,-0.1253988593816757,0.2893955707550049,1.2212421894073486,walking
1783090511676609000,7.057609130859375,0.9172331375356764,0.8801691159673035,0.7789362082839012,-0.1851444840431213,0.1296479552984237,1.201758861541748,walking
1783090511686654200,7.067654296875,1.5960139311745762,1.1383265695482492,0.8578016552060842,-0.242550790309906,-0.0171390958130359,1.1890647411346436,walking
1783090511696698000,7.077697998046875,1.610826008120179,1.3010676927700635,0.4688678040713072,-0.2849760949611664,-0.1300184875726699,1.2235602140426636,walking
1783090511706743600,7.08774365234375,1.4677449863970278,1.336629858408123,0.2860889782100915,-0.3035969138145447,-0.2136593163013458,1.2709261178970337,walking
1783090511716787500,7.097787353515625,1.066561236954853,1.3258594580687582,0.2694604994922876,-0.3005402982234955,-0.3187337517738342,1.3270742893218994,walking
1783090511726832400,7.107832275390625,0.951758507471904,1.2788409556537863,0.7470774272084235,-0.2965985536575317,-0.4586940407752991,1.3833671808242798,walking
1783090511736876500,7.11787646484375,1.0771420330062509,1.231167788722366,1.3596686425596476,-0.2938866019248962,-0.619308352470398,1.4372719526290894,walking
1783090511746920400,7.12792041015625,1.3153674362793564,1.1365247808232903,1.8270482538998123,-0.2996808290481567,-0.7277618050575256,1.4758923053741455,walking
1783090511756965400,7.13796533203125,1.2591129034854471,0.942439840310812,1.7460376116424798,-0.2961492538452148,-0.72598797082901,1.5155216455459597,walking
1783090511767009500,7.148009521484375,1.0924024382412434,0.8393801555916667,1.2944903602063655,-0.2771795392036438,-0.6138507723808289,1.552656173706055,walking
1783090511777054200,7.15805419921875,1.1280969980873168,0.7324437755696475,0.9455816454678774,-0.2420215159654617,-0.4718177914619446,1.5819498300552368,walking
1783090511787098400,7.168098388671875,1.2964600528441368,0.6355771002717315,0.7457856338322162,-0.1951461434364318,-0.3423647284507751,1.5995501279830933,walking
1783090511797142500,7.178142578125,1.30368152853027,0.6111170511454344,0.4070142822265625,-0.1540966480970382,-0.2294933646917343,1.5747063159942627,walking
1783090511807187200,7.188187255859375,1.2291473888106643,0.3538990703716874,-0.0964724152833223,-0.1433963328599929,-0.1222475990653038,1.5275646448135376,walking
1783090511817231400,7.1982314453125,1.0856804365098476,0.0258648013576865,-0.3937280996739864,-0.1632703244686126,-0.0463200993835926,1.453274488449097,walking
1783090511827276500,7.208276611328125,1.0790646716319023,-0.3374178911700844,-0.3927648075997829,-0.1902161836624145,0.0208173915743827,1.3501379489898682,walking
1783090511837320400,7.218320556640625,0.926288989042118,-0.6139103351257741,-0.4753220947772264,-0.2112222462892532,0.0920144543051719,1.240866780281067,walking
1783090511847365400,7.228365478515625,0.8976196516577154,-0.936063583277166,-0.4996814600080251,-0.2164513617753982,0.1561468243598938,1.1403383016586304,walking
1783090511857409500,7.238409423828125,1.0422381851464508,-1.128984302315861,-0.2926262710243463,-0.2047343999147415,0.1865073293447494,1.0375503301620483,walking
1783090511867453400,7.248453369140625,1.1784957175251096,-1.1871132506795228,0.0023760814815759,-0.1764047443866729,0.1717022806406021,0.929900884628296,walking
1783090511877498400,7.258498291015625,1.2814148977950215,-1.1273507097646591,0.3662427113771438,-0.1413484364748001,0.1258357465267181,0.8524202108383179,walking
1783090511887542500,7.26854248046875,1.2105942256405948,-0.928329920285195,0.6232715993195772,-0.1158342882990837,0.0575786530971527,0.7986067533493042,walking
1783090511897587200,7.278587158203125,1.0402027337960895,-0.7915313398323953,0.8409469665169715,-0.1035961583256721,-0.0408681817352771,0.7572224140167236,walking
1783090511907631400,7.28863134765625,0.872578368577361,-0.7238231006100774,1.102537463286519,-0.1063424050807952,-0.2176320403814315,0.7332313060760498,walking
1783090511917676500,7.298676513671875,0.9031238750971852,-0.7646955014854669,1.4899825371682642,-0.1276033073663711,-0.4718161225318908,0.698373019695282,walking
1783090511927720200,7.30872021484375,0.9918667921070008,-0.9435685520797968,1.655209339725971,-0.1479248106479644,-0.7434726357460022,0.6479987502098083,walking
1783090511937764400,7.318764404296875,1.0380345229115338,-1.0553523721329867,1.458619430655241,-0.1578582972288131,-0.9746260643005372,0.6131178736686707,walking
1783090511947809500,7.3288095703125,1.1300990586247297,-1.084950660930574,1.1449094550698995,-0.1432223618030548,-1.134234070777893,0.5885070562362671,walking
1783090511957853400,7.338853515625,1.3077248125717045,-0.9815607213437556,0.7969751383215189,-0.0973411872982978,-1.2284544706344604,0.5823180675506592,walking
1783090511967898400,7.3488984375,1.4492105279274283,-0.615088292863965,0.311897957727313,-0.0205550603568553,-1.2071795463562012,0.6120493412017822,walking
1783090511977942500,7.358942626953125,1.404581404867023,-0.1196001928925514,-0.37369127381742,0.0607211031019687,-1.0394538640975952,0.6960148811340332,walking
1783090511987986400,7.368986328125,1.330871879403293,0.4128197536349296,-0.9135849172264336,0.1111107766628265,-0.768822431564331,0.8145191669464111,walking
1783090511998031400,7.37903125,1.2885150851890443,0.8687848215132952,-1.3411626795321705,0.1304672360420227,-0.4446906149387359,0.9625877737998962,walking
1783090512008075500,7.389075439453125,1.3287059335410594,1.1888713463932274,-1.6786597734183073,0.1242373138666153,-0.1528169512748718,1.1025307178497314,walking
1783090512018120400,7.399120361328125,1.2209528303086756,1.310043318647146,-1.6785218262523411,0.1051078736782074,0.0567439645528793,1.2206814289093018,walking
1783090512028164400,7.409164306640625,1.0336398681491612,1.1901011804491282,-1.3282242875039576,0.089861549437046,0.1745851039886474,1.305607795715332,walking
1783090512038209500,7.41920947265625,0.9086588590011,0.6489554911524057,-0.7253823127508163,0.0949151739478111,0.2411525100469589,1.326770305633545,walking
1783090512048253200,7.429253173828125,0.6414872010983527,0.048102059867978,-0.2570797413468361,0.113973282277584,0.2793962955474853,1.312650203704834,walking
1783090512058297300,7.43929736328125,0.4143189061515033,-0.2797743882358074,-0.0528425323933362,0.1313524097204208,0.291133850812912,1.2862058877944946,walking
1783090512068342500,7.449342529296875,0.54754255072698,-0.4199982669621706,0.1502571969628334,0.1350182443857193,0.2668450176715851,1.2286416292190552,walking
1783090512078386400,7.459386474609375,0.6425295497581363,-0.3972781933709979,0.3229185334354639,0.1302127689123153,0.2173537164926529,1.1375449895858765,walking
1783090512088431400,7.469431396484375,0.5853367132008075,-0.3617491993501782,0.4200654869794845,0.1023563742637634,0.1657067686319351,1.0210988521575928,walking
1783090512098475500,7.4794755859375,0.3888658273998647,-0.3679045071095227,0.3885767082601785,0.0643144324421882,0.1177918836474418,0.9165439605712892,walking
1783090512108520400,7.4895205078125,0.1769093493059277,-0.3549649460375308,0.322110724183917,0.0478246733546257,0.0500368066132068,0.8423368334770203,walking
1783090512118564400,7.499564453125,0.0809981481019407,-0.4088014579042792,0.2198398517549037,0.0810959264636039,-0.0543871410191059,0.7724299430847168,walking
1783090512128608500,7.5096083984375,0.1167081977780908,-0.571378038214147,0.0144213240623474,0.1523061990737915,-0.1768480688333511,0.7255854606628418,walking
1783090512138653400,7.5196533203125,0.131302028863132,-0.572045854473114,-0.2140618528753519,0.2231036275625229,-0.2879430949687958,0.6910876035690308,walking
1783090512148697300,7.529697265625,0.1261033642414957,-0.5353700285047293,-0.3340805634409189,0.241602748632431,-0.3878656923770904,0.6700241565704346,walking
1783090512158742500,7.539742431640625,0.1310056762650609,-0.5337745760068298,-0.3482739239662885,0.2110249549150467,-0.4599416255950928,0.6530777812004089,walking
1783090512168786400,7.549786376953125,0.2224861284799873,-0.5275266215279698,-0.202463185018301,0.15828637778759,-0.4998719990253448,0.6387084126472473,walking
1783090512178830300,7.559830322265625,0.2698522022236138,-0.46376171310395,-0.0691892715603113,0.1297843605279922,-0.5189817547798157,0.6329686045646667,walking
